Folder: TFE/Tests de traction/Fichiers source/04_07_2016 (part 3)

File: Sample_9_250N.txt
Time (s)	Load (N)	Machine Extension (mm)	Extension from Preload (mm)
0
1,318	0,38374	0,080224	0,0067129
2,636	0,67797	0,10498	0,031464
3,954	1,068	0,12409	0,050577
5,273	2,0307	0,15674	0,083228
6,591	2,3393	0,16959	0,09608
7,909	3,0153	0,19216	0,11865
9,227	3,6507	0,21443	0,14092
10,55	4,1307	0,2364	0,16288
11,86	4,3739	0,25434	0,18083
13,18	4,723	0,27818	0,20467
14,5	5,1939	0,30233	0,22882
15,82	5,6618	0,32365	0,25014
17,14	6,1204	0,34433	0,27082
18,45	6,5615	0,36615	0,29264
19,77	7,1259	0,39319	0,31968
21,09	7,3397	0,41056	0,33705
22,41	7,7776	0,43398	0,36047
23,73	8,0492	0,45422	0,38071
25,04	7,9804	0,47756	0,40405
26,36	7,8309	0,49662	0,42311
27,68	8,1965	0,52186	0,44835
29	8,2443	0,53974	0,46622
30,32	8,5297	0,56485	0,49134
31,64	8,5423	0,58454	0,51103
32,95	8,6469	0,60875	0,53524
34,27	8,7837	0,63183	0,55832
35,59	8,8967	0,6517	0,57818
36,91	9,2871	0,6819	0,60838
38,23	9,1953	0,69623	0,62272
39,54	9,4107	0,72007	0,64656
40,86	9,5097	0,74074	0,66723
42,18	9,656	0,76321	0,6897
43,5	9,8288	0,78728	0,71377
44,82	9,9103	0,80734	0,73383
46,14	9,8655	0,82603	0,75252
47,45	10,096	0,85078	0,77727
48,77	9,994	0,8743	0,80079
50,09	10,082	0,89478	0,82126
51,41	10,253	0,92029	0,84678
52,73	10,237	0,93747	0,86396
54,04	10,616	0,96843	0,89492
55,36	10,385	0,98164	0,90813
56,68	10,562	1,0056	0,93207
58	10,594	1,0255	0,95201
59,32	10,759	1,049	0,97546
60,63	10,797	1,071	0,99744
61,95	10,93	1,0927	1,0192
63,27	10,853	1,1106	1,0371
64,59	11,113	1,1366	1,0631
65,91	11,232	1,16	1,0865
67,23	11,255	1,1805	1,107
68,54	11,32	1,2017	1,1282
69,86	11,361	1,2235	1,15
71,18	11,683	1,2519	1,1784
72,5	11,503	1,2669	1,1934
73,82	11,778	1,2933	1,2198
75,13	11,727	1,3122	1,2387
76,45	11,868	1,3348	1,2613
77,77	11,932	1,358	1,2845
79,09	11,989	1,3781	1,3046
80,41	11,978	1,3991	1,3256
81,73	12,153	1,422	1,3485
83,04	12,109	1,4411	1,3676
84,36	12,31	1,4665	1,393
85,68	12,418	1,489	1,4155
87	12,411	1,5079	1,4344
88,32	12,64	1,5354	1,4619
89,63	12,543	1,5532	1,4797
90,95	12,715	1,5767	1,5032
92,27	12,729	1,5976	1,5241
93,59	12,813	1,6194	1,5459
94,91	12,746	1,6378	1,5643
96,23	12,961	1,6638	1,5903
97,54	12,908	1,6829	1,6093
98,86	13,099	1,7072	1,6337
100,2	13,086	1,7278	1,6543
101,5	13,218	1,7514	1,6779
102,8	13,417	1,7772	1,7037
104,1	13,314	1,7946	1,7211
105,5	13,754	1,8259	1,7523
106,8	13,447	1,8385	1,765
108,1	13,62	1,8621	1,7886
109,4	13,683	1,8838	1,8103
110,7	13,776	1,9056	1,832
112	13,879	1,9297	1,8562
113,4	13,881	1,9494	1,8759
114,7	13,786	1,9682	1,8947
116	13,976	1,992	1,9185
117,3	14,077	2,017	1,9435
118,6	14,131	2,0375	1,964
120	14,34	2,0619	1,9884
121,3	14,247	2,0794	2,0059
122,6	14,699	2,1103	2,0368
123,9	14,402	2,1241	2,0506
125,2	14,556	2,1477	2,0742
126,5	14,564	2,1687	2,0952
127,9	14,613	2,1902	2,1167
129,2	14,813	2,2143	2,1408
130,5	14,798	2,2353	2,1618
131,8	14,708	2,2542	2,1807
133,1	14,929	2,2786	2,2051
134,5	14,945	2,2992	2,2257
135,8	15,068	2,3224	2,2489
137,1	15,204	2,3455	2,272
138,4	15,193	2,3657	2,2922
139,7	15,575	2,3961	2,3225
141	15,291	2,4087	2,3352
142,4	15,411	2,4332	2,3597
143,7	15,454	2,455	2,3815
145	15,502	2,4766	2,4031
146,3	15,694	2,5021	2,4286
147,6	15,63	2,521	2,4475
149	15,52	2,5394	2,4659
150,3	15,751	2,5637	2,4902
151,6	15,771	2,5851	2,5116
152,9	15,929	2,6085	2,535
154,2	16,056	2,6323	2,5588
155,5	15,981	2,6501	2,5766
156,9	16,3	2,6784	2,6049
158,2	16,153	2,6953	2,6218
159,5	16,277	2,7189	2,6454
160,8	16,265	2,7394	2,6659
162,1	16,406	2,7617	2,6882
163,5	16,518	2,7862	2,7127
164,8	16,53	2,8068	2,7333
166,1	16,404	2,8259	2,7524
167,4	16,622	2,8497	2,7762
168,7	16,624	2,8709	2,7974
170	16,745	2,894	2,8205
171,4	16,888	2,9171	2,8436
172,7	16,824	2,9366	2,8631
174	17,288	2,9671	2,8936
175,3	16,945	2,9808	2,9073
176,6	17,149	3,0051	2,9316
178	17,114	3,0254	2,9519
179,3	17,231	3,0487	2,9752
180,6	17,064	3,0653	2,9918
181,9	17,396	3,092	3,0184
183,2	17,279	3,1113	3,0378
184,5	17,482	3,1355	3,062
185,9	17,416	3,1561	3,0826
187,2	17,51	3,1797	3,1061
188,5	17,748	3,2057	3,1322
189,8	17,565	3,2215	3,148
191,1	18,039	3,2525	3,179
192,5	17,751	3,2664	3,1929
193,8	17,913	3,29	3,2165
195,1	17,92	3,311	3,2375
196,4	18,013	3,3331	3,2596
197,7	18,166	3,3574	3,2839
199	18,168	3,3779	3,3044
200,4	18,16	3,3986	3,325
201,7	18,256	3,421	3,3474
203	18,297	3,4429	3,3694
204,3	18,393	3,4653	3,3918
205,6	18,633	3,4916	3,4181
206,9	18,452	3,5074	3,4339
208,3	18,914	3,539	3,4655
209,6	18,635	3,5514	3,4778
210,9	18,824	3,5761	3,5026
212,2	18,834	3,5974	3,5239
213,5	18,924	3,6195	3,546
214,9	19,065	3,6435	3,5699
216,2	19,048	3,663	3,5894
217,5	19,157	3,6861	3,6126
218,8	19,157	3,7063	3,6328
220,1	19,212	3,728	3,6545
221,4	19,279	3,75	3,6765
222,8	19,493	3,7754	3,7019
224,1	19,368	3,7927	3,7191
225,4	19,833	3,8225	3,749
226,7	19,603	3,8375	3,764
228	19,824	3,8623	3,7888
229,4	19,758	3,8814	3,8079
230,7	19,913	3,9041	3,8306
232	19,952	3,9268	3,8533
233,3	19,99	3,9482	3,8747
234,6	20,044	3,9713	3,8978
235,9	20,098	3,9912	3,9177
237,3	20,175	4,0144	3,9409
238,6	20,309	4,0365	3,963
239,9	20,502	4,0607	3,9872
241,2	20,354	4,0784	4,0049
242,5	20,915	4,1105	4,037
243,9	20,536	4,1231	4,0496
245,2	20,665	4,1473	4,0738
246,5	20,777	4,1688	4,0953
247,8	20,729	4,1895	4,116
249,1	20,888	4,2128	4,1393
250,4	20,851	4,2338	4,1603
251,8	20,81	4,2538	4,1802
253,1	20,945	4,2779	4,2044
254,4	21,071	4,3014	4,2279
255,7	21,058	4,3209	4,2474
257	21,318	4,3478	4,2743
258,4	21,07	4,3637	4,2902
259,7	21,527	4,3949	4,3214
261	21,131	4,4089	4,3354
262,3	21,273	4,4332	4,3597
263,6	21,127	4,4527	4,3792
264,9	21,212	4,476	4,4025
266,3	21,273	4,4999	4,4264
267,6	21,091	4,5197	4,4462
268,9	20,818	4,5382	4,4647
270,2	20,868	4,5628	4,4893
271,5	20,226	4,5859	4,5124
272,9	16,862	4,608	4,5344
274,2	14,589	4,6354	4,5619
275,5	13,559	4,6498	4,5762
276,8	13,236	4,6757	4,6022
278,1	12,547	4,6942	4,6207
279,4	12,19	4,7184	4,6449
280,8	11,631	4,7388	4,6653
282,1	11,305	4,7612	4,6877
283,4	11,158	4,7862	4,7127
284,7	10,938	4,8054	4,7319
286	10,629	4,8258	4,7523
287,4	10,618	4,8503	4,7768
288,7	10,306	4,8704	4,7969
290	10,221	4,8928	4,8193
291,3	10,214	4,9194	4,8459
292,6	9,8481	4,9347	4,8612
293,9	10,005	4,9662	4,8927
295,3	9,5896	4,9797	4,9062
296,6	9,3748	5,0035	4,9299
297,9	9,1073	5,0241	4,9506
299,2	8,8967	5,0469	4,9733
300,5	8,7581	5,0697	4,9962
301,9	8,5801	5,0903	5,0168
303,2	8,2917	5,1129	5,0394
304,5	8,0245	5,134	5,0605
305,8	7,4483	5,1565	5,0829
307,1	7,2654	5,1802	5,1067
308,4	6,812	5,204	5,1305
309,8	6,3122	5,2209	5,1474
311,1	6,096	5,2529	5,1794
312,4	5,5863	5,2651	5,1916
313,7	5,4318	5,2894	5,2159
315	5,224	5,3105	5,237
316,4	5,0659	5,3328	5,2592
317,7	4,9374	5,3566	5,2831
319	4,7718	5,3774	5,3039
320,3	4,5104	5,397	5,3235
321,6	4,4337	5,4201	5,3466
322,9	4,2114	5,4454	5,3719
324,3	4,1238	5,4643	5,3908
325,6	3,9812	5,4904	5,4169
326,9	3,7875	5,5064	5,4329
328,2	3,6773	5,5326	5,459
329,5	3,482	5,5507	5,4771
330,9	3,3111	5,5745	5,501
332,2	3,1231	5,5959	5,5224
333,5	2,9976	5,6173	5,5438
334,8	2,8678	5,6426	5,5691
336,1	2,7259	5,6622	5,5887
337,4	2,5412	5,683	5,6095
338,8	2,4619	5,7061	5,6326
340,1	2,3047	5,7286	5,6551
341,4	2,2185	5,75	5,6765
342,7	2,1077	5,7727	5,6992
344	2,0145	5,793	5,7195
345,4	1,9715	5,8239	5,7504
346,7	1,7935	5,8368	5,7633
348	1,7112	5,86	5,7864
349,3	1,6084	5,8815	5,808
350,6	1,5367	5,9031	5,8296
351,9	1,4976	5,9295	5,856
353,3	1,3851	5,9464	5,8729
354,6	1,2833	5,968	5,8945
355,9	1,2569	5,991	5,9175
357,2	1,2081	6,0175	5,944
358,5	1,1468	6,0356	5,9621
359,9	1,1185	6,0591	5,9856
361,2	1,0806	6,0777	6,0042
362,5	1,0952	6,1059	6,0324
363,8	1,0777	6,1223	6,0488
365,1	1,0799	6,1458	6,0723
366,4	1,0779	6,1646	6,0911
367,8	1,127	6,1893	6,1158
369,1	1,138	6,2069	6,1334
370,4	1,2111	6,2335	6,1599
371,7	1,2564	6,2547	6,1812
373	1,3434	6,2769	6,2034
374,4	1,4285	6,3007	6,2272
375,7	1,5007	6,3209	6,2474
377	1,6291	6,347	6,2735
378,3	1,6906	6,3638	6,2903
379,6	1,8587	6,3963	6,3227
380,9	1,8857	6,4083	6,3348
382,3	1,9924	6,4315	6,358
383,6	2,0691	6,4533	6,3798
384,9	2,1504	6,4739	6,4004
386,2	2,2454	6,4983	6,4248
387,5	0,054587	6,5181	6,4445
388,9	0,053674	6,5397	6,4662
390,2	0,05276	6,5628	6,4893
391,5	0,048829	6,5889	6,5153
392,6	0,055876

File: Sample_10_250N.txt
Time (s)	Load (N)	Machine Extension (mm)	Extension from Preload (mm)
0
1,342	0,75776	0,033268	0,014016
2,685	1,2295	0,051842	0,03259
4,027	1,8704	0,078113	0,05886
5,369	2,3854	0,10035	0,081097
6,712	2,9097	0,12269	0,10343
8,054	3,4573	0,14724	0,12799
9,396	3,8434	0,16741	0,14816
10,74	4,359	0,19174	0,17249
12,08	4,6814	0,21099	0,19173
13,42	5,3536	0,24314	0,22389
14,77	5,3998	0,25582	0,23657
16,11	5,808	0,27986	0,2606
17,45	6,1462	0,30265	0,2834
18,79	6,4065	0,32349	0,30424
20,13	6,8301	0,349	0,32975
21,48	6,9925	0,36925	0,35
22,82	7,1378	0,38952	0,37027
24,16	7,4806	0,41382	0,39457
25,5	7,623	0,43592	0,41667
26,85	7,8948	0,45878	0,43953
28,19	8,0669	0,47995	0,4607
29,53	8,3384	0,50417	0,48491
30,87	8,4869	0,52532	0,50607
32,22	8,6906	0,54842	0,52916
33,56	8,9499	0,57425	0,555
34,9	8,9579	0,59132	0,57207
36,24	9,3106	0,62254	0,60328
37,58	8,7193	0,63608	0,61683
38,93	8,9463	0,66059	0,64134
40,27	9,0793	0,68177	0,66252
41,61	9,2538	0,7048	0,68555
42,95	9,2005	0,72213	0,70287
44,3	9,4757	0,74914	0,72989
45,64	9,5818	0,77125	0,75199
46,98	9,709	0,793	0,77374
48,32	9,7726	0,81515	0,7959
49,67	9,9944	0,83828	0,81903
51,01	10,018	0,8602	0,84095
52,35	10,173	0,88268	0,86343
53,69	10,401	0,91052	0,89127
55,03	10,41	0,92727	0,90802
56,38	10,588	0,95327	0,93402
57,72	10,55	0,97171	0,95245
59,06	10,82	0,99803	0,97878
60,4	10,759	1,0159	0,99669
61,75	10,944	1,0407	1,0215
63,09	11,014	1,0618	1,0426
64,43	11,137	1,0851	1,0659
65,77	11,043	1,104	1,0848
67,12	11,197	1,1301	1,1108
68,46	10,978	1,1479	1,1286
69,8	10,891	1,174	1,1547
71,14	9,5084	1,1982	1,1789
72,48	9,608	1,2183	1,199
73,83	9,9312	1,2441	1,2248
75,17	10,03	1,2639	1,2446
76,51	10,342	1,2897	1,2704
77,85	10,346	1,307	1,2878
79,2	10,615	1,3333	1,314
80,54	10,626	1,3524	1,3332
81,88	10,844	1,3766	1,3574
83,22	10,87	1,3965	1,3772
84,57	11,009	1,421	1,4017
85,91	11,118	1,4436	1,4243
87,25	11,178	1,4645	1,4453
88,59	11,335	1,4908	1,4715
89,94	11,371	1,5103	1,4911
91,28	11,467	1,5344	1,5151
92,62	11,539	1,5554	1,5362
93,96	11,57	1,5774	1,5581
95,3	11,619	1,599	1,5798
96,65	11,775	1,6227	1,6035
97,99	11,895	1,6452	1,6259
99,33	11,915	1,6676	1,6483
100,7	11,893	1,6874	1,6681
102	12,332	1,7195	1,7003
103,4	12,051	1,7321	1,7128
104,7	12,326	1,7604	1,7412
106	12,194	1,7772	1,758
107,4	12,335	1,8013	1,7821
108,7	12,381	1,8237	1,8044
110,1	12,402	1,8455	1,8262
111,4	12,315	1,8637	1,8444
112,8	12,562	1,8896	1,8704
114,1	12,496	1,9088	1,8896
115,4	12,69	1,9346	1,9154
116,8	12,843	1,9594	1,9401
118,1	12,843	1,98	1,9607
119,5	13,017	2,0046	1,9853
120,8	12,93	2,0235	2,0043
122,2	13,106	2,0486	2,0294
123,5	13,091	2,0682	2,0489
124,8	13,455	2,0982	2,079
126,2	13,23	2,1129	2,0937
127,5	13,37	2,1372	2,118
128,9	13,389	2,1589	2,1397
130,2	13,471	2,1812	2,162
131,5	13,534	2,204	2,1847
132,9	13,566	2,2254	2,2062
134,2	13,719	2,2501	2,2308
135,6	13,715	2,2709	2,2516
136,9	13,628	2,2899	2,2706
138,3	13,827	2,3156	2,2964
139,6	13,884	2,3386	2,3194
140,9	13,935	2,3604	2,3411
142,3	13,959	2,381	2,3617
143,6	14,068	2,4039	2,3846
145	14,445	2,434	2,4148
146,3	14,145	2,4487	2,4295
147,7	14,451	2,477	2,4577
149	14,242	2,4927	2,4735
150,3	14,385	2,5167	2,4974
151,7	14,441	2,5404	2,5211
153	14,478	2,5622	2,543
154,4	14,394	2,5813	2,5621
155,7	14,495	2,606	2,5867
157,1	14,388	2,6258	2,6065
158,4	14,529	2,6497	2,6304
159,7	14,439	2,67	2,6508
161,1	14,537	2,6959	2,6767
162,4	14,657	2,7223	2,703
163,8	14,499	2,7397	2,7205
165,1	14,732	2,7669	2,7476
166,4	14,66	2,7844	2,7652
167,8	14,984	2,8118	2,7925
169,1	14,81	2,8283	2,8091
170,5	15,225	2,8586	2,8394
171,8	14,986	2,874	2,8548
173,2	15,133	2,8985	2,8793
174,5	15,261	2,9204	2,9012
175,8	15,273	2,9423	2,923
177,2	15,089	2,9587	2,9394
178,5	15,372	2,9869	2,9676
179,9	15,236	3,0036	2,9844
181,2	15,48	3,0302	3,011
182,6	15,584	3,0535	3,0342
183,9	15,64	3,0761	3,0569
185,2	15,732	3,0989	3,0796
186,6	15,709	3,1191	3,0998
187,9	16,033	3,1478	3,1285
189,3	15,861	3,1637	3,1445
190,6	16,2	3,1933	3,174
192	15,966	3,209	3,1897
193,3	16,12	3,2332	3,214
194,6	16,157	3,254	3,2348
196	16,264	3,2782	3,2589
197,3	16,355	3,3013	3,282
198,7	16,276	3,3219	3,3026
200	16,262	3,347	3,3277
201,3	16,177	3,3664	3,3471
202,7	16,309	3,3902	3,371
204	16,37	3,4116	3,3924
205,4	16,319	3,4317	3,4124
206,7	16,56	3,456	3,4367
208,1	16,663	3,4803	3,461
209,4	16,666	3,5006	3,4813
210,7	16,979	3,5284	3,5092
212,1	16,771	3,5439	3,5246
213,4	17,174	3,5743	3,555
214,8	16,964	3,5897	3,5704
216,1	17,116	3,6133	3,5941
217,5	17,127	3,6341	3,6149
218,8	17,235	3,6574	3,6381
220,1	17,399	3,6811	3,6618
221,5	17,35	3,7022	3,6829
222,8	17,46	3,7253	3,7061
224,2	17,479	3,7467	3,7275
225,5	17,448	3,7671	3,7479
226,9	17,638	3,7925	3,7733
228,2	17,714	3,8145	3,7953
229,5	17,855	3,8372	3,8179
230,9	18,018	3,8612	3,842
232,2	17,959	3,8804	3,8612
233,6	18,211	3,9079	3,8886
234,9	18,047	3,9237	3,9045
236,2	18,434	3,9536	3,9344
237,6	18,194	3,9688	3,9496
238,9	18,406	3,9968	3,9776
240,3	18,317	4,0151	3,9958
241,6	18,47	4,0385	4,0193
243	18,584	4,0615	4,0423
244,3	18,612	4,0832	4,064
245,6	18,653	4,1048	4,0856
247	18,632	4,1273	4,108
248,3	18,501	4,1502	4,131
249,7	18,528	4,1724	4,1531
251	18,45	4,1947	4,1755
252,4	18,4	4,2164	4,1971
253,7	18,391	4,2416	4,2224
255	18,033	4,2603	4,241
256,4	18,088	4,2858	4,2666
257,7	18,074	4,3047	4,2855
259,1	18,521	4,3334	4,3142
260,4	18,341	4,3504	4,3311
261,8	18,511	4,3738	4,3546
263,1	18,589	4,3959	4,3767
264,4	18,688	4,4187	4,3994
265,8	18,902	4,4434	4,4241
267,1	18,835	4,4624	4,4431
268,5	18,933	4,4861	4,4669
269,8	18,942	4,5075	4,4882
271,1	18,939	4,531	4,5117
272,5	18,853	4,5522	4,533
273,8	18,837	4,574	4,5547
275,2	19,047	4,5974	4,5781
276,5	19,137	4,6208	4,6015
277,9	19,112	4,6411	4,6219
279,2	19,523	4,6718	4,6526
280,5	19,073	4,6849	4,6656
281,9	19,208	4,7117	4,6924
283,2	18,88	4,7305	4,7112
284,6	18,914	4,7544	4,7352
285,9	18,744	4,7756	4,7564
287,3	18,538	4,7977	4,7784
288,6	18,438	4,8231	4,8039
289,9	18,089	4,8427	4,8235
291,3	17,667	4,8664	4,8471
292,6	17,226	4,888	4,8687
294	16,457	4,9085	4,8892
295,3	16,292	4,9327	4,9135
296,7	16,044	4,9583	4,9391
298	15,675	4,9776	4,9584
299,3	15,476	5,0022	4,9829
300,7	15,032	5,0204	5,0012
302	15,035	5,05	5,0308
303,4	14,498	5,0652	5,046
304,7	14,687	5,0963	5,077
306	14,042	5,1112	5,092
307,4	13,997	5,1358	5,1165
308,7	13,634	5,1569	5,1376
310,1	13,486	5,1792	5,1599
311,4	13,278	5,2036	5,1844
312,8	13,086	5,2239	5,2046
314,1	12,667	5,2426	5,2233
315,4	12,666	5,2682	5,249
316,8	12,427	5,2914	5,2722
318,1	12,357	5,313	5,2937
319,5	12,183	5,3349	5,3157
320,8	12,083	5,3571	5,3379
322,2	12,095	5,3831	5,3639
323,5	11,822	5,4011	5,3818
324,8	11,784	5,4258	5,4066
326,2	11,619	5,4465	5,4273
327,5	11,666	5,4709	5,4517
328,9	11,394	5,491	5,4717
330,2	11,395	5,5152	5,4959
331,6	11,267	5,5372	5,5179
332,9	11,074	5,5588	5,5396
334,2	10,213	5,5764	5,5572
335,6	9,4588	5,6037	5,5845
336,9	9,1613	5,6233	5,6041
338,3	9,2356	5,6493	5,63
339,6	8,882	5,6721	5,6528
340,9	8,3188	5,6942	5,6749
342,3	7,4375	5,7183	5,6991
343,6	6,826	5,738	5,7188
345	6,3617	5,7636	5,7443
346,3	6,0531	5,7811	5,7619
347,7	5,8615	5,8071	5,7878
349	5,6189	5,8263	5,8071
350,3	5,4918	5,8509	5,8317
351,7	5,2903	5,8723	5,853
353	5,1153	5,8953	5,876
354,4	4,911	5,9179	5,8987
355,7	4,7194	5,9395	5,9202
357,1	4,4335	5,9581	5,9388
358,4	4,3742	5,985	5,9658
359,7	4,1107	6,0057	5,9865
361,1	4,0532	6,0285	6,0093
362,4	3,8239	6,0537	6,0345
363,8	3,6945	6,0745	6,0552
365,1	3,4882	6,0954	6,0762
366,5	3,3399	6,1174	6,0981
367,8	3,2799	6,1494	6,1302
369,1	3,0223	6,1618	6,1426
370,5	2,9349	6,1902	6,171
371,8	2,6913	6,2069	6,1876
373,2	2,5714	6,2313	6,2121
374,5	2,4764	6,2534	6,2342
375,8	2,3175	6,2758	6,2566
377,2	2,0732	6,2917	6,2725
378,5	1,9851	6,3188	6,2996
379,9	1,7122	6,3383	6,319
381,2	1,6036	6,3636	6,3444
382,6	1,4059	6,3877	6,3684
383,9	1,1931	6,4092	6,39
385,2	0,97942	6,4337	6,4145
386,6	0,90394	6,4543	6,435
387,9	0,85128	6,479	6,4597
389,3	0,86948	6,4974	6,4782
390,6	0,92695	6,5237	6,5045
392	0,98553	6,5422	6,523
393,3	1,0777	6,5666	6,5473
394,6	1,158	6,5889	6,5696
396	-0,58476	6,6113	6,5921
397,3	-0,58381	6,6342	6,615
398,7	-0,58044	6,6548	6,6355
399,8	-0,5768

File: Sample_11_250N.txt
Time (s)	Load (N)	Machine Extension (mm)	Extension from Preload (mm)
0
2,138	1,2834	0,043934	0,026635
4,275	2,189	0,076295	0,058996
6,413	3,6681	0,12455	0,10725
8,55	4,2865	0,15125	0,13395
10,69	5,1487	0,18707	0,16977
12,83	5,8797	0,2204	0,2031
14,96	7,0574	0,26941	0,25211
17,1	7,4288	0,29508	0,27779
19,24	7,9439	0,32885	0,31155
21,38	8,3043	0,36212	0,34482
23,51	8,955	0,40943	0,39213
25,65	8,9048	0,43794	0,42064
27,79	9,172	0,47085	0,45355
29,93	9,0098	0,50951	0,49221
32,06	9,313	0,54905	0,53175
34,2	9,4197	0,57876	0,56146
36,34	9,6879	0,61381	0,59651
38,48	9,9148	0,65065	0,63335
40,61	10,289	0,69049	0,67319
42,75	10,355	0,7211	0,7038
44,89	10,483	0,75671	0,73941
47,03	10,369	0,79218	0,77488
49,16	10,829	0,83316	0,81586
51,3	10,89	0,86504	0,84775
53,44	10,958	0,89994	0,88265
55,58	11,173	0,93612	0,91882
57,71	11,409	0,97514	0,95784
59,85	11,448	1,0065	0,98924
61,99	11,55	1,042	1,0247
64,13	11,726	1,0787	1,0614
66,26	11,994	1,1179	1,1006
68,4	11,968	1,1485	1,1312
70,54	12,044	1,1838	1,1665
72,68	12,288	1,2231	1,2058
74,81	12,382	1,258	1,2407
76,95	12,465	1,2916	1,2743
79,09	12,613	1,3271	1,3098
81,23	12,59	1,3627	1,3454
83,36	12,843	1,3996	1,3823
85,5	12,954	1,4351	1,4178
87,64	12,974	1,4689	1,4516
89,78	13,094	1,5051	1,4878
91,91	13,541	1,5474	1,5301
94,05	13,443	1,5775	1,5602
96,19	13,515	1,6124	1,5951
98,33	13,678	1,6496	1,6323
100,5	13,85	1,6849	1,6676
102,6	13,998	1,7207	1,7034
104,7	14,017	1,7546	1,7373
106,9	14,167	1,7903	1,773
109	14,378	1,8277	1,8104
111,2	14,453	1,8619	1,8446
113,3	14,615	1,8979	1,8806
115,4	14,823	1,9354	1,9181
117,6	14,913	1,9699	1,9526
119,7	15,036	2,005	1,9877
121,8	15,169	2,04	2,0227
124	15,233	2,0748	2,0575
126,1	15,546	2,1146	2,0973
128,3	15,565	2,1474	2,1301
130,4	15,644	2,1827	2,1654
132,5	15,724	2,2176	2,2003
134,7	15,918	2,2549	2,2376
136,8	16,008	2,29	2,2728
138,9	16,173	2,3258	2,3085
141,1	16,229	2,3608	2,3435
143,2	16,418	2,3971	2,3798
145,4	16,466	2,4322	2,4149
147,5	16,598	2,4683	2,451
149,6	16,803	2,5067	2,4894
151,8	16,821	2,5395	2,5222
153,9	16,94	2,5754	2,5581
156	17,034	2,6109	2,5936
158,2	17,212	2,6479	2,6306
160,3	17,264	2,6823	2,665
162,5	17,032	2,7172	2,6999
164,6	15,635	2,7522	2,7349
166,7	15,898	2,7921	2,7748
168,9	16,145	2,8247	2,8074
171	16,432	2,8594	2,8421
173,1	16,754	2,8972	2,8799
175,3	16,909	2,9322	2,9149
177,4	16,971	2,9656	2,9483
179,6	17,15	3,0021	2,9848
181,7	17,295	3,0386	3,0213
183,8	17,594	3,078	3,0607
186	17,535	3,1093	3,092
188,1	17,593	3,1439	3,1266
190,2	17,777	3,1824	3,1651
192,4	17,899	3,2179	3,2006
194,5	17,914	3,2519	3,2346
196,7	17,991	3,2879	3,2706
198,8	18,039	3,323	3,3057
200,9	18,211	3,3599	3,3426
203,1	18,264	3,395	3,3777
205,2	18,247	3,4293	3,412
207,3	18,428	3,4673	3,45
209,5	18,506	3,5029	3,4856
211,6	18,425	3,5348	3,5175
213,8	18,533	3,5704	3,5531
215,9	18,687	3,6086	3,5913
218	19,074	3,6505	3,6332
220,2	18,872	3,6795	3,6622
222,3	18,829	3,7134	3,6961
224,4	18,831	3,7482	3,7309
226,6	19,056	3,7876	3,7703
228,7	19,077	3,8211	3,8038
230,9	19,141	3,8567	3,8394
233	19,22	3,8923	3,875
235,1	19,472	3,9325	3,9152
237,3	19,382	3,9647	3,9474
239,4	19,345	3,9982	3,9809
241,5	19,578	4,0384	4,0211
243,7	19,787	4,0763	4,059
245,8	19,612	4,1064	4,0891
248	19,654	4,1408	4,1235
250,1	19,8	4,1781	4,1608
252,2	20,174	4,2198	4,2025
254,4	19,988	4,2497	4,2324
256,5	19,904	4,2828	4,2655
258,6	20,14	4,3209	4,3036
260,8	20,227	4,3569	4,3396
262,9	20,248	4,391	4,3737
265,1	20,309	4,4257	4,4084
267,2	20,355	4,4624	4,4451
269,3	20,698	4,5046	4,4873
271,5	20,534	4,5345	4,5172
273,6	20,532	4,5684	4,5511
275,7	20,714	4,6052	4,5879
277,9	20,905	4,6439	4,6266
280	20,849	4,6766	4,6593
282,2	20,823	4,7108	4,6935
284,3	20,789	4,7458	4,7285
286,4	21,388	4,7914	4,7741
288,6	21,127	4,8193	4,802
290,7	21,102	4,8528	4,8355
292,8	20,963	4,8859	4,8686
295	21,545	4,9308	4,9135
297,1	21,413	4,9619	4,9446
299,3	21,343	4,9956	4,9783
301,4	21,307	5,0304	5,0131
303,5	21,942	5,0756	5,0583
305,7	21,704	5,1038	5,0865
307,8	21,634	5,1384	5,1211
309,9	21,592	5,1728	5,1555
312,1	22,216	5,2196	5,2023
314,2	21,809	5,2459	5,2286
316,4	21,829	5,2807	5,2634
318,5	21,818	5,3147	5,2974
320,6	22,423	5,36	5,3427
322,8	22,13	5,3885	5,3712
324,9	22,161	5,4235	5,4062
327	22,138	5,4588	5,4415
329,2	22,614	5,5012	5,4839
331,3	22,328	5,5298	5,5125
333,5	22,454	5,5658	5,5485
335,6	22,385	5,6004	5,5831
337,7	22,939	5,6446	5,6274
339,9	22,643	5,6734	5,6561
342	22,631	5,7084	5,6911
344,1	22,667	5,7452	5,7279
346,3	23,001	5,7849	5,7676
348,4	22,885	5,8163	5,799
350,6	22,925	5,8504	5,8331
352,7	23,008	5,8881	5,8708
354,8	23,258	5,9264	5,9091
357	23,148	5,959	5,9417
359,1	23,129	5,9936	5,9763
361,2	23,222	6,0306	6,0133
363,4	23,427	6,0671	6,0498
365,5	23,413	6,1014	6,0841
367,7	23,399	6,1357	6,1184
369,8	23,408	6,1713	6,154
371,9	23,915	6,2154	6,1981
374,1	23,584	6,2438	6,2265
376,2	23,619	6,2786	6,2613
378,3	23,609	6,3135	6,2962
380,5	23,922	6,3531	6,3358
382,6	23,862	6,3863	6,369
384,8	23,81	6,4212	6,4039
386,9	23,977	6,4592	6,4419
389	24,074	6,4949	6,4776
391,2	24,043	6,5294	6,5121
393,3	24,098	6,5646	6,5473
395,4	24,091	6,5989	6,5816
397,6	24,287	6,637	6,6197
399,7	24,294	6,6717	6,6544
401,9	24,175	6,7063	6,689
404	23,51	6,7432	6,7259
406,1	23,7	6,7803	6,763
408,3	23,816	6,8139	6,7966
410,4	23,968	6,8488	6,8315
412,5	24,224	6,8868	6,8695
414,7	24,35	6,9219	6,9046
416,8	24,411	6,9572	6,9399
419	24,461	6,9909	6,9736
421,1	24,663	7,03	7,0127
423,2	24,702	7,0634	7,0461
425,4	24,755	7,0995	7,0822
427,5	24,791	7,1347	7,1174
429,6	24,812	7,1702	7,1529
431,8	24,932	7,2063	7,189
433,9	25,003	7,2426	7,2253
436,1	24,98	7,2767	7,2594
438,2	25,058	7,3141	7,2968
440,3	25,134	7,349	7,3317
442,5	25,179	7,3846	7,3673
444,6	25,281	7,4206	7,4033
446,7	25,278	7,4561	7,4388
448,9	25,366	7,4917	7,4744
451	25,31	7,5264	7,5091
453,2	25,424	7,5627	7,5454
455,3	25,374	7,5976	7,5803
457,4	25,547	7,6344	7,6171
459,6	25,651	7,6695	7,6522
461,7	25,676	7,7048	7,6875
463,8	25,684	7,7401	7,7228
466	25,686	7,7755	7,7582
468,1	25,825	7,8119	7,7946
470,3	25,976	7,8486	7,8313
472,4	25,85	7,8814	7,8641
474,5	26,028	7,9192	7,9019
476,7	25,927	7,9544	7,9371
478,8	25,941	7,9912	7,9739
480,9	25,747	8,0264	8,0091
483,1	25,525	8,0605	8,0432
485,2	25,496	8,0957	8,0784
487,4	25,742	8,1338	8,1165
489,5	26,015	8,1735	8,1562
491,6	25,918	8,2039	8,1866
493,8	25,9	8,2378	8,2205
495,9	26,154	8,2763	8,259
498	26,206	8,3108	8,2935
500,2	26,356	8,3464	8,3291
502,3	26,403	8,3819	8,3646
504,5	26,565	8,4188	8,4015
506,6	26,721	8,4566	8,4393
508,7	26,566	8,488	8,4707
510,9	26,622	8,524	8,5067
513	26,802	8,5619	8,5446
515,1	26,956	8,6009	8,5836
517,3	26,675	8,6301	8,6128
519,4	26,75	8,6659	8,6486
521,6	26,932	8,7051	8,6878
523,7	27,114	8,7433	8,726
525,8	26,879	8,7736	8,7563
528	26,92	8,8081	8,7908
530,1	26,929	8,8423	8,825
532,2	27,488	8,8888	8,8715
534,4	27,1	8,9163	8,899
536,5	27,066	8,9502	8,9329
538,7	27,297	8,9895	8,9722
540,8	27,445	9,0275	9,0102
542,9	27,248	9,0581	9,0408
545,1	27,249	9,0922	9,0749
547,2	27,37	9,1304	9,1131
549,3	27,763	9,1737	9,1564
551,5	27,366	9,201	9,1837
553,6	27,3	9,2356	9,2183
555,8	27,557	9,2768	9,2595
557,9	27,731	9,3145	9,2972
560	27,444	9,3431	9,3258
562,2	27,398	9,3769	9,3596
564,3	27,168	9,4116	9,3943
566,4	27,548	9,4597	9,4424
568,6	27,008	9,4851	9,4678
570,7	27,05	9,5195	9,5022
572,9	27,249	9,5596	9,5423
575	27,382	9,5992	9,5819
577,1	27,088	9,6284	9,6111
579,3	27,083	9,6616	9,6443
581,4	27,255	9,6999	9,6826
583,5	27,703	9,7437	9,7264
585,7	27,344	9,7707	9,7534
587,8	27,405	9,8058	9,7885
590	27,645	9,8439	9,8266
592,1	27,845	9,8844	9,8671
594,2	27,536	9,9133	9,896
596,4	27,492	9,9475	9,9302
598,5	27,498	9,9824	9,9651
600,6	27,822	10,025	10,007
602,8	27,582	10,056	10,038
604,9	27,607	10,09	10,073
607,1	27,788	10,129	10,112
609,2	28,127	10,172	10,155
611,3	24,315	10,199	10,181
613,5	17,745	10,232	10,215
615,6	13,977	10,268	10,251
617,7	12,428	10,312	10,295
619,9	10,836	10,34	10,322
622	9,5323	10,375	10,358
624,2	8,0025	10,412	10,395
626,3	6,3672	10,45	10,433
628,4	4,8768	10,484	10,466
630,6	2,4377	10,518	10,501
632,7	-0,82105	10,553	10,536
634,8	-0,82938	10,599	10,582
636,7		10,621	10,604