Folder: TFE/Tests de traction/Fichiers source/04_07_2016 (part 2)

File: Sample_5_250N.txt
Time (s)	Load (N)	Machine Extension (mm)	Extension from Preload (mm)
0
0,8573	0,37278	0,015236	0,0010065
1,715	1,0838	0,038055	0,023825
2,572	1,3755	0,048629	0,034399
3,429	1,7241	0,063577	0,049347
4,286	2,3606	0,085785	0,071555
5,144	2,2689	0,086855	0,072625
6,001	2,7409	0,10624	0,092012
6,858	3,1098	0,12162	0,10739
7,715	3,2919	0,1328	0,11857
8,573	3,6734	0,14867	0,13444
9,43	3,9679	0,16356	0,14933
10,29	4,3992	0,18357	0,16934
11,14	4,5125	0,19249	0,17826
12	4,7128	0,20655	0,19232
12,86	5,2183	0,22934	0,21511
13,72	5,0234	0,22952	0,21529
14,57	5,3674	0,2481	0,23387
15,43	5,6586	0,26454	0,25031
16,29	5,8401	0,27884	0,26461
17,15	6,0215	0,29215	0,27792
18	6,2317	0,30703	0,2928
18,86	6,4842	0,32375	0,30952
19,72	6,597	0,33576	0,32153
20,57	6,7266	0,34977	0,33554
21,43	7,168	0,37413	0,3599
22,29	6,8998	0,37338	0,35915
23,15	7,1547	0,39204	0,37781
24	7,3477	0,40834	0,39411
24,86	7,3348	0,4196	0,40537
25,72	7,4694	0,43389	0,41966
26,58	7,5743	0,44869	0,43446
27,43	7,7252	0,46604	0,45181
28,29	7,7208	0,4772	0,46297
29,15	7,8449	0,49212	0,47789
30	8,1755	0,51463	0,5004
30,86	7,8398	0,51479	0,50056
31,72	8,1052	0,53531	0,52108
32,58	8,2149	0,55027	0,53604
33,43	8,1416	0,56189	0,54766
34,29	8,2509	0,57624	0,56201
35,15	8,3567	0,59306	0,57883
36,01	8,4626	0,61054	0,59631
36,86	8,4021	0,62079	0,60656
37,72	8,41	0,63546	0,62123
38,58	8,5383	0,65656	0,64233
39,43	8,2593	0,66142	0,64719
40,29	8,2852	0,67804	0,66381
41,15	8,2827	0,69313	0,6789
42,01	8,088	0,70412	0,68989
42,86	8,0453	0,72027	0,70604
43,72	7,9941	0,73523	0,721
44,58	8,0536	0,75429	0,74006
45,43	7,9546	0,76417	0,74994
46,29	7,9121	0,77816	0,76393
47,15	7,9803	0,79899	0,78476
48,01	7,823	0,80719	0,79296
48,86	7,7331	0,81951	0,80528
49,72	7,7199	0,8365	0,82227
50,58	7,5577	0,849	0,83477
51,44	7,5388	0,86309	0,84886
52,29	7,5241	0,87882	0,86459
53,15	7,4829	0,89403	0,8798
54,01	7,4197	0,90668	0,89245
54,86	7,3421	0,92112	0,90689
55,72	7,4388	0,94316	0,92893
56,58	7,0411	0,9439	0,92967
57,44	7,1555	0,96297	0,94874
58,29	7,1633	0,98091	0,96668
59,15	7,0488	0,99465	0,98042
60,01	6,945	1,005	0,99078
60,87	6,8903	1,0198	1,0056
61,72	6,7754	1,036	1,0218
62,58	6,7199	1,0481	1,0339
63,44	6,6967	1,0638	1,0496
64,29	6,7442	1,0838	1,0696
65,15	6,5846	1,0944	1,0802
66,01	6,5257	1,1066	1,0924
66,87	6,4838	1,1225	1,1083
67,72	6,2959	1,1354	1,1212
68,58	6,2975	1,1481	1,1339
69,44	6,3054	1,1641	1,1499
70,3	6,2003	1,178	1,1638
71,15	6,2181	1,1932	1,179
72,01	6,1705	1,2058	1,1916
72,87	6,3455	1,2301	1,2159
73,72	6,0005	1,2302	1,216
74,58	6,1035	1,2494	1,2352
75,44	6,1458	1,2647	1,2504
76,3	6,0162	1,2766	1,2623
77,15	6,057	1,2922	1,278
78,01	6,079	1,3063	1,2921
78,87	6,1306	1,3243	1,3101
79,73	6,1028	1,3352	1,321
80,58	6,0955	1,3504	1,3361
81,44	6,1703	1,3667	1,3524
82,3	6,0218	1,3741	1,3599
83,15	6,1203	1,3911	1,3769
84,01	6,1851	1,4074	1,3932
84,87	6,1112	1,4214	1,4071
85,73	6,156	1,4346	1,4204
86,58	6,244	1,4496	1,4353
87,44	6,2745	1,4662	1,452
88,3	6,2705	1,4784	1,4642
89,16	6,2945	1,4927	1,4785
90,01	6,417	1,5125	1,4983
90,87	6,3647	1,521	1,5068
91,73	6,3759	1,5345	1,5203
92,58	6,4544	1,5507	1,5365
93,44	6,4005	1,5616	1,5473
94,3	6,4927	1,5768	1,5626
95,16	6,5479	1,5918	1,5776
96,01	6,5681	1,6052	1,591
96,87	6,6091	1,6198	1,6056
97,73	6,7207	1,636	1,6217
98,59	6,8785	1,6571	1,6428
99,44	6,7567	1,6637	1,6494
100,3	6,8344	1,6785	1,6643
101,2	6,8956	1,6935	1,6792
102	6,8244	1,7053	1,6911
102,9	6,9324	1,7191	1,7049
103,7	7,0205	1,7361	1,7219
104,6	7,0155	1,7495	1,7353
105,4	7,083	1,7635	1,7492
106,3	7,1312	1,7783	1,7641
107,2	7,3657	1,8015	1,7873
108	7,0898	1,8029	1,7886
108,9	7,2288	1,8206	1,8063
109,7	7,3361	1,8361	1,8219
110,6	7,2898	1,8496	1,8354
111,4	7,315	1,8639	1,8497
112,3	7,33	1,8783	1,8641
113,2	7,1938	1,8951	1,8808
114	1,6717	1,906	1,8918
114,9	1,5825	1,9217	1,9075
115,7	1,57	1,9405	1,9263
116,6	1,479	1,9481	1,9339
117,4	1,4806	1,9626	1,9484
118,3	1,4464	1,9793	1,965
119,2	1,3617	1,9934	1,9792
120	1,2669	2,0059	1,9917
120,9	1,2272	2,0212	2,0069
121,7	1,1535	2,0357	2,0215
122,6	1,1252	2,0494	2,0352
123,4	1,0937	2,0656	2,0514
124,3	1,0467	2,08	2,0658
125,2	0,99624	2,0911	2,0769
126	0,99631	2,1066	2,0923
126,9	0,95828	2,1216	2,1074
127,7	0,9032	2,1348	2,1206
128,6	0,84781	2,1477	2,1335
129,4	0,78452	2,1631	2,1488
130,3	0,70875	2,18	2,1657
131,2	0,68989	2,1914	2,1772
132	0,6531	2,2074	2,1931
132,9	0,66743	2,2291	2,2149
133,7	0,55314	2,2306	2,2164
134,6	0,56151	2,2509	2,2367
135,4	0,53572	2,2656	2,2514
136,3	0,47452	2,2773	2,2631
137,2	0,49984	2,2913	2,2771
138	0,47932	2,3077	2,2934
138,9	0,43503	2,3215	2,3073
139,7	0,44016	2,3356	2,3214
140,6	0,42427	2,3491	2,3349
141,4	0,4528	2,3714	2,3572
142,3	0,38602	2,3761	2,3619
143,2	0,40473	2,3925	2,3783
144	0,39608	2,4079	2,3937
144,9	0,36078	2,4181	2,4038
145,7	0,36472	2,4352	2,421
146,6	0,35478	2,4495	2,4353
147,4	0,34915	2,4675	2,4532
148,3	0,33545	2,4781	2,4639
149,2	0,3287	2,493	2,4788
150	0,3277	2,5133	2,4991
150,9	0,26795	2,5167	2,5025
151,7	0,27451	2,535	2,5207
152,6	0,27255	2,5499	2,5357
153,5	0,23797	2,5605	2,5463
154,3	0,24764	2,5775	2,5633
155,2	0,23131	2,5931	2,5788
156	0,23486	2,6099	2,5957
156,9	0,2139	2,6207	2,6065
157,7	0,20432	2,6354	2,6212
158,6	0,21327	2,6579	2,6437
159,5	0,15653	2,6618	2,6476
160,3	0,16234	2,6774	2,6631
161,2	0,1659	2,6936	2,6794
162	0,14857	2,7062	2,692
162,9	0,15819	2,7193	2,7051
163,7	0,13854	2,735	2,7208
164,6	0,13659	2,7529	2,7386
165,5	0,11963	2,7629	2,7487
166,3	0,10708	2,7788	2,7646
167,2	0,12668	2,8014	2,7872
168	0,086374	2,8016	2,7874
168,9	0,095108	2,821	2,8068
169,7	0,0946	2,8367	2,8225
170,6	0,084052	2,8484	2,8342
171,5	0,091992	2,8627	2,8484
172,3	0,096956	2,8788	2,8646
173,2	0,098683	2,8926	2,8783
174	0,098639	2,9067	2,8925
174,9	0,11506	2,9209	2,9067
175,7	0,10549	2,9403	2,9261
176,6	0,1129	2,9507	2,9365
177,5	0,11387	2,9633	2,949
178,3	0,11622	2,9792	2,965
179,2	0,10839	2,9939	2,9796
180	0,099819	3,0064	2,9922
180,9	0,10594	3,0214	3,0072
181,7	0,10351	3,0367	3,0225
182,6	0,087087	3,0498	3,0356
183,5	0,022295	3,065	3,0508
184,3	0,036991	3,0845	3,0703
185,2	0,041088	3,0915	3,0773
186	0,060292	3,1059	3,0917
186,9	0,080262	3,122	3,1078
187,7	0,10582	3,1367	3,1224
188,6	0,12272	3,1491	3,1349
189,5	0,14346	3,1646	3,1504
190,3	0,17161	3,1792	3,165
191,2	0,20575	3,1914	3,1772
192	0,23657	3,2071	3,1929
192,9	0,28622	3,2248	3,2105
193,7	0,30699	3,2343	3,22
194,6	0,34301	3,2493	3,2351
195,5	0,39545	3,2655	3,2512
196,3	0,42311	3,2768	3,2626
197,2	0,47448	3,2907	3,2765
198	0,51418	3,3067	3,2925
198,9	0,57926	3,3218	3,3076
199,7	0,63086	3,3341	3,3199
200,6	0,68813	3,3502	3,3359
201,5	0,75429	3,3665	3,3523
202,3	0,77813	3,3806	3,3664
203,2	0,84635	3,393	3,3788
204	0,8833	3,4081	3,3939
204,9	0,90728	3,4185	3,4043
205,7	0,97103	3,4343	3,4201
206,6	1,0401	3,4506	3,4364
207,5	1,0615	3,4643	3,4501
208,3	1,1025	3,4775	3,4632
209,2	1,1506	3,4933	3,4791
210	0,87494	3,5134	3,4992
210,9	0,70938	3,5171	3,5029
211,7	0,72571	3,5351	3,5209
212,6	0,73766	3,5504	3,5362
213,5	0,68634	3,5618	3,5476
214,3	0,68201	3,578	3,5638
215,2	0,65367	3,5927	3,5784
216	0,63663	3,6084	3,5942
216,9	0,62442	3,6209	3,6067
217,7	0,63866	3,6362	3,622
218,6	0,62459	3,6522	3,638
219,5	0,58407	3,6602	3,6459
220,3	-0,68156	3,6767	3,6624
221,2	-0,67888	3,6939	3,6797
222	-0,6762	3,7057	3,6915
222,9	-0,67721	3,7205	3,7062
223,7	-0,67609	3,7366	3,7223
224,6	-0,66975	3,7511	3,7369
225,5	-0,67396	3,7638	3,7496
226,3	-0,66723	3,7788	3,7645
227,2	-0,67825	3,8046	3,7904
228	-0,67383	3,8017	3,7875
228,9	-0,66925	3,8204	3,8061
229,7	-0,67008	3,8368	3,8226
230,6	-0,676	3,8478	3,8336
231,5	-0,67832	3,8624	3,8482
232,3	-0,67984	3,8776	3,8633
233,2	-0,669	3,8986	3,8843
234	-0,6719	3,9067	3,8924
234,9	-0,66881	3,9215	3,9073
235,7	-0,66867	3,9381	3,9239
236,6	-0,66852	3,9513	3,9371
237,5	-0,66761	3,9638	3,9496
238,3	-0,66293	3,9792	3,965
239,2	-0,67378	3,9908	3,9766
240	-0,66685	4,0057	3,9915
240,9	-0,66593	4,0219	4,0077
241,7	-0,66502	4,0382	4,024
242,6	-0,67668	4,0492	4,035
243,5	-0,67713	4,0642	4,05
244,3	-0,68044	4,0849	4,0706
245,2	-0,67735	4,092	4,0777
246	-0,671	4,1071	4,0929
246,9	-0,67167	4,1222	4,108
247,7	-0,60565	4,1348	4,1206
248,6	-0,70915	4,1492	4,135
249,5	-0,85292	4,1641	4,1499
250,3	-0,78043	4,1823	4,1681
251,2	-0,59227	4,192	4,1778
252	-0,71146	4,2069	4,1926
252,9	-0,71164	4,2237	4,2095
253,8	-0,71182	4,2362	4,222
254,6	-0,66421	4,2492	4,2349
255,3	-0,66973

File: Sample_6_250N.txt
Time (s)	Load (N)	Machine Extension (mm)	Extension from Preload (mm)
0
1,059	0,21418	0,093403	0,00049045
2,118	0,27171	0,11354	0,020625
3,177	0,42419	0,13201	0,039097
4,236	0,86294	0,15295	0,060036
5,294	1,2749	0,16882	0,075909
6,353	1,6451	0,18606	0,093148
7,412	2,107	0,2091	0,11619
8,471	2,3392	0,22137	0,12846
9,53	2,5222	0,23888	0,14597
10,59	2,7586	0,2583	0,16539
11,65	3,1132	0,27292	0,18
12,71	3,4949	0,29293	0,20002
13,77	3,625	0,3051	0,21219
14,82	4,0712	0,32778	0,23487
15,88	4,4263	0,34813	0,25522
16,94	4,5729	0,36212	0,26921
18	4,869	0,37963	0,28672
19,06	5,3137	0,4022	0,30929
20,12	5,508	0,4137	0,32078
21,18	5,7933	0,43377	0,34086
22,24	5,973	0,44895	0,35604
23,3	6,2576	0,46874	0,37583
24,35	6,7678	0,49578	0,40286
25,41	6,6503	0,50031	0,4074
26,47	6,922	0,52199	0,42908
27,53	7,2115	0,54221	0,4493
28,59	7,2957	0,55633	0,46342
29,65	7,5439	0,57562	0,4827
30,71	7,6049	0,59074	0,49782
31,77	7,8133	0,60965	0,51674
32,83	8,0263	0,63101	0,5381
33,88	7,7624	0,64733	0,55442
34,94	7,7921	0,66249	0,56958
36	8,0317	0,6833	0,59039
37,06	8,058	0,69667	0,60376
38,12	8,2848	0,71619	0,62328
39,18	8,3748	0,73391	0,641
40,24	8,52	0,74916	0,65625
41,3	8,7816	0,77213	0,67922
42,36	8,8359	0,78663	0,69372
43,41	8,9785	0,80439	0,71148
44,47	9,2725	0,82747	0,73456
45,53	9,1912	0,8394	0,74649
46,59	9,3459	0,85794	0,76503
47,65	9,4896	0,8768	0,78389
48,71	9,531	0,89032	0,79741
49,77	9,6851	0,9107	0,81779
50,83	9,8472	0,92908	0,83617
51,89	9,9271	0,94589	0,85297
52,94	10,157	0,96825	0,87534
54	10,129	0,98028	0,88737
55,06	10,242	0,99862	0,90571
56,12	10,396	1,0192	0,92632
57,18	10,387	1,0321	0,93916
58,24	10,504	1,052	0,95904
59,3	10,496	1,0678	0,97488
60,36	10,662	1,0864	0,99346
61,42	10,918	1,1087	1,0158
62,47	10,88	1,122	1,0291
63,53	10,933	1,1386	1,0457
64,59	11,057	1,1577	1,0648
65,65	11,065	1,1737	1,0808
66,71	11,207	1,1921	1,0991
67,77	11,173	1,208	1,1151
68,83	11,287	1,2263	1,1333
69,89	11,466	1,2466	1,1537
70,95	11,621	1,2659	1,173
72	11,569	1,2801	1,1872
73,06	11,91	1,3052	1,2123
74,12	11,773	1,3164	1,2235
75,18	11,804	1,3339	1,241
76,24	11,904	1,3533	1,2603
77,3	11,867	1,3678	1,2748
78,36	11,976	1,3874	1,2945
79,42	11,906	1,4047	1,3118
80,48	11,973	1,4213	1,3284
81,53	12,261	1,4471	1,3542
82,59	12,052	1,4575	1,3646
83,65	12,067	1,4751	1,3822
84,71	12,072	1,4923	1,3994
85,77	11,948	1,5083	1,4154
86,83	11,965	1,529	1,4361
87,89	11,654	1,5432	1,4503
88,95	11,828	1,5628	1,4699
90,01	12,125	1,585	1,4921
91,06	12,07	1,5984	1,5055
92,12	12,174	1,6154	1,5225
93,18	12,245	1,6329	1,54
94,24	12,297	1,65	1,5571
95,3	12,469	1,6691	1,5761
96,36	12,594	1,6883	1,5954
97,42	12,595	1,7032	1,6102
98,48	12,709	1,7228	1,6299
99,54	12,653	1,7376	1,6447
100,6	12,771	1,7565	1,6636
101,7	12,912	1,7756	1,6827
102,7	12,931	1,7917	1,6988
103,8	13,014	1,8097	1,7168
104,8	13,07	1,8269	1,734
105,9	13,094	1,8438	1,7509
106,9	13,267	1,8636	1,7707
108	13,239	1,8799	1,787
109,1	13,332	1,8972	1,8043
110,1	13,471	1,9176	1,8247
111,2	13,518	1,9333	1,8404
112,2	13,498	1,9502	1,8573
113,3	13,682	1,9704	1,8775
114,4	13,636	1,9852	1,8923
115,4	13,749	2,0034	1,9105
116,5	13,82	2,0216	1,9287
117,5	13,854	2,038	1,9451
118,6	13,992	2,0587	1,9658
119,7	14,048	2,0747	1,9818
120,7	14,037	2,0921	1,9992
121,8	14,118	2,1088	2,0159
122,8	14,158	2,1265	2,0336
123,9	14,253	2,145	2,0521
124,9	14,402	2,1651	2,0721
126	14,375	2,1798	2,0869
127,1	14,591	2,2017	2,1088
128,1	14,601	2,2181	2,1252
129,2	14,587	2,2339	2,141
130,2	14,751	2,2539	2,161
131,3	14,643	2,267	2,1741
132,4	14,794	2,2871	2,1942
133,4	14,857	2,3058	2,2129
134,5	14,864	2,3202	2,2273
135,5	15,02	2,3401	2,2472
136,6	14,876	2,3528	2,2598
137,7	15,093	2,3748	2,2819
138,7	15,356	2,3978	2,3049
139,8	15,223	2,4095	2,3165
140,8	15,292	2,4278	2,3349
141,9	15,327	2,4456	2,3527
142,9	15,348	2,4621	2,3692
144	15,49	2,4809	2,3879
145,1	15,551	2,4987	2,4058
146,1	15,527	2,5153	2,4224
147,2	15,736	2,5363	2,4434
148,2	15,699	2,5525	2,4596
149,3	15,757	2,5692	2,4763
150,4	15,995	2,5913	2,4984
151,4	15,861	2,6035	2,5106
152,5	15,907	2,6207	2,5278
153,5	15,902	2,6371	2,5441
154,6	16,097	2,6577	2,5648
155,7	16,394	2,6819	2,589
156,7	16,221	2,694	2,6011
157,8	16,176	2,71	2,6171
158,8	16,372	2,7316	2,6386
159,9	16,231	2,7453	2,6523
161	16,308	2,7633	2,6704
162	16,274	2,7805	2,6876
163,1	16,296	2,7965	2,7036
164,1	16,367	2,8165	2,7235
165,2	16,274	2,8317	2,7388
166,2	16,419	2,8522	2,7593
167,3	16,524	2,8732	2,7803
168,4	16,36	2,886	2,793
169,4	16,327	2,904	2,8111
170,5	16,312	2,9216	2,8287
171,5	16,264	2,9383	2,8453
172,6	16,278	2,9565	2,8635
173,7	16,285	2,9741	2,8812
174,7	16,299	2,9937	2,9008
175,8	16,26	3,0111	2,9182
176,8	16,284	3,029	2,9361
177,9	16,201	3,0445	2,9516
179	16,307	3,0656	2,9727
180	16,14	3,0795	2,9865
181,1	16,217	3,098	3,0051
182,1	16,153	3,1153	3,0224
183,2	16,198	3,1327	3,0398
184,2	16,425	3,1564	3,0635
185,3	16,051	3,1662	3,0733
186,4	16,182	3,1865	3,0935
187,4	16,177	3,2057	3,1128
188,5	16,026	3,2203	3,1274
189,5	16,036	3,2391	3,1462
190,6	15,958	3,258	3,1651
191,7	15,9	3,2733	3,1804
192,7	15,983	3,2936	3,2007
193,8	15,846	3,3105	3,2175
194,8	15,73	3,3272	3,2343
195,9	15,45	3,3518	3,2589
197	14,826	3,3623	3,2694
198	14,115	3,3808	3,2879
199,1	13,325	3,3991	3,3062
200,1	13,078	3,4143	3,3214
201,2	13,095	3,4338	3,3409
202,2	12,914	3,4516	3,3587
203,3	12,781	3,4683	3,3754
204,4	12,789	3,4909	3,398
205,4	12,371	3,5047	3,4118
206,5	12,11	3,522	3,4291
207,5	11,974	3,5429	3,45
208,6	11,689	3,5558	3,4629
209,7	11,608	3,5742	3,4812
210,7	11,506	3,5921	3,4992
211,8	11,445	3,6087	3,5158
212,8	11,554	3,6315	3,5386
213,9	11,393	3,6467	3,5538
215	11,287	3,6634	3,5705
216	11,357	3,6855	3,5926
217,1	11,08	3,6974	3,6045
218,1	11,016	3,7151	3,6222
219,2	10,861	3,731	3,638
220,2	10,892	3,7495	3,6566
221,3	10,999	3,773	3,6801
222,4	10,81	3,7882	3,6953
223,4	10,719	3,8042	3,7113
224,5	10,705	3,824	3,7311
225,5	10,528	3,8383	3,7454
226,6	10,49	3,8566	3,7637
227,7	10,329	3,8718	3,7789
228,7	10,319	3,8902	3,7973
229,8	10,423	3,9109	3,818
230,8	10,144	3,9239	3,831
231,9	10,298	3,9454	3,8525
233	10,433	3,969	3,8761
234	10,236	3,9817	3,8888
235,1	10,161	3,9981	3,9052
236,1	10,059	4,0163	3,9234
237,2	9,9879	4,033	3,9401
238,2	9,9659	4,0518	3,9589
239,3	9,7371	4,0659	3,973
240,4	9,7292	4,0866	3,9937
241,4	9,6135	4,1057	4,0128
242,5	9,1254	4,1239	4,031
243,5	8,7054	4,1399	4,047
244,6	8,3423	4,1631	4,0701
245,7	7,7197	4,1736	4,0807
246,7	7,1669	4,1916	4,0987
247,8	6,7267	4,2108	4,1179
248,8	6,4616	4,227	4,1341
249,9	6,3048	4,2459	4,153
251	6,1999	4,2657	4,1728
252	5,9947	4,2805	4,1876
253,1	5,96	4,3047	4,2118
254,1	5,6633	4,3151	4,2222
255,2	5,538	4,3342	4,2413
256,3	5,3085	4,353	4,2601
257,3	5,1916	4,367	4,2741
258,4	5,0503	4,3886	4,2957
259,4	4,8641	4,4057	4,3127
260,5	4,719	4,4224	4,3294
261,5	4,6304	4,4447	4,3518
262,6	4,3974	4,4564	4,3635
263,7	4,2435	4,4738	4,3809
264,7	4,0271	4,4957	4,4028
265,8	3,9518	4,5091	4,4162
266,8	3,8094	4,5283	4,4354
267,9	3,6706	4,5454	4,4525
269	3,5738	4,563	4,4701
270	3,5399	4,588	4,4951
271,1	3,306	4,5992	4,5063
272,1	3,2012	4,6154	4,5225
273,2	3,0321	4,6354	4,5425
274,3	2,9459	4,6498	4,5569
275,3	2,8556	4,6691	4,5762
276,4	2,7273	4,6861	4,5932
277,4	2,6527	4,7028	4,6099
278,5	2,5669	4,7225	4,6295
279,5	2,3801	4,7359	4,6429
280,6	2,3265	4,7574	4,6645
281,7	2,2024	4,7804	4,6874
282,7	2,0786	4,7923	4,6994
283,8	1,9343	4,8096	4,7167
284,8	1,7672	4,8295	4,7366
285,9	1,7127	4,8432	4,7503
287	1,5957	4,8651	4,7722
288	1,481	4,8799	4,7869
289,1	1,459	4,8977	4,8048
290,1	1,4588	4,9223	4,8294
291,2	1,425	4,9335	4,8406
292,3	1,4397	4,9507	4,8577
293,3	1,4484	4,9696	4,8767
294,4	1,4928	4,9847	4,8918
295,4	1,5451	5,0053	4,9124
296,5	1,5619	5,0185	4,9256
297,5	1,6565	5,039	4,946
298,6	1,8074	5,0647	4,9718
299,7	1,8469	5,077	4,9841
300,7	1,9014	5,0913	4,9984
301,8	1,9667	5,109	5,0161
302,8	2,0474	5,1264	5,0335
303,9	2,1553	5,1455	5,0526
305	2,203	5,1627	5,0698
306	2,2677	5,1797	5,0868
307,1	2,2066	5,2015	5,1085
308,1	0,13492	5,2172	5,1243
309,2	0,13251	5,2334	5,1404
310,3	0,11891	5,2545	5,1616
311,3	0,12185	5,2677	5,1748
312,4	0,12185	5,287	5,1941
313,4	0,12847	5,3062	5,2133
314,5	0,13601	5,3209	5,228
315,4		5,3375	5,2446

File: Sample_7_250N.txt
Time (s)	Load (N)	Machine Extension (mm)	Extension from Preload (mm)
0
0,4641	0,45088	0,01744	1,4506E-06
0,9283	0,64292	0,025881	0,0084423
1,392	1,0329	0,035968	0,018529
1,857	1,2606	0,042164	0,024725
2,321	1,5405	0,049595	0,032156
2,785	1,8261	0,057112	0,039673
3,249	2,1442	0,06494	0,047502
3,713	2,5911	0,074508	0,05707
4,177	2,9306	0,0833	0,065861
4,641	3,0549	0,086461	0,069022
5,105	3,4479	0,096051	0,078613
5,57	3,6947	0,10258	0,085137
6,034	4,091	0,11145	0,094013
6,498	4,417	0,11991	0,10247
6,962	4,7213	0,12886	0,11142
7,426	5,1426	0,13638	0,11894
7,89	5,3315	0,14251	0,12507
8,354	5,6304	0,14994	0,1325
8,819	5,9532	0,15773	0,14029
9,283	6,2974	0,16624	0,1488
9,747	6,5257	0,17435	0,15691
10,21	6,8578	0,18224	0,1648
10,68	7,0788	0,1892	0,17176
11,14	7,3339	0,19612	0,17869
11,6	7,6519	0,20481	0,18737
12,07	7,9351	0,21242	0,19498
12,53	8,6514	0,22762	0,21018
13	8,4458	0,22889	0,21145
13,46	8,4849	0,23213	0,21469
13,92	8,9141	0,24273	0,2253
14,39	9,1419	0,25006	0,23262
14,85	9,3421	0,25772	0,24029
15,32	9,757	0,26953	0,25209
15,78	9,9901	0,27767	0,26023
16,24	10,058	0,28269	0,26525
16,71	10,193	0,28792	0,27048
17,17	10,446	0,29738	0,27994
17,64	10,563	0,30368	0,28624
18,1	10,788	0,31327	0,29583
18,57	11,055	0,32424	0,3068
19,03	10,849	0,32458	0,30714
19,49	11,198	0,33527	0,31783
19,96	11,36	0,34319	0,32575
20,42	11,64	0,35157	0,33413
20,89	11,85	0,35979	0,34235
21,35	12,207	0,37303	0,35559
21,81	11,977	0,37306	0,35562
22,28	12,32	0,38227	0,36483
22,74	12,404	0,39007	0,37263
23,21	12,646	0,39802	0,38058
23,67	12,808	0,40592	0,38848
24,13	13,159	0,419	0,40156
24,6	12,911	0,41911	0,40167
25,06	13,185	0,42853	0,41109
25,53	13,29	0,43566	0,41822
25,99	13,413	0,44339	0,42595
26,46	13,556	0,45155	0,43411
26,92	13,808	0,4647	0,44726
27,38	13,568	0,46481	0,44737
27,85	13,888	0,4759	0,45846
28,31	13,825	0,4819	0,46446
28,78	14,002	0,49144	0,474
29,24	13,948	0,49923	0,48179
29,7	14,088	0,51245	0,49501
30,17	13,708	0,51281	0,49537
30,63	13,937	0,52306	0,50562
31,1	13,942	0,52739	0,50996
31,56	14,034	0,53724	0,51981
32,03	14,15	0,54529	0,52785
32,49	14,294	0,55577	0,53833
32,95	14,401	0,56276	0,54533
33,42	14,439	0,5704	0,55296
33,88	14,367	0,57382	0,55638
34,35	14,497	0,58289	0,56546
34,81	14,58	0,59143	0,57399
35,27	14,74	0,6021	0,58466
35,74	14,6	0,60539	0,58796
36,2	14,819	0,61764	0,6002
36,67	14,702	0,6207	0,60326
37,13	14,844	0,62932	0,61189
37,59	14,913	0,63844	0,621
38,06	14,955	0,64626	0,62882
38,52	15,121	0,65829	0,64085
38,99	14,776	0,6584	0,64096
39,45	15,005	0,66823	0,65079
39,92	14,939	0,67588	0,65844
40,38	14,987	0,68373	0,6663
40,84	15,079	0,69254	0,6751
41,31	15,084	0,70133	0,68389
41,77	15,033	0,70802	0,69058
42,24	15,044	0,71528	0,69784
42,7	15,039	0,72184	0,7044
43,16	14,986	0,72969	0,71225
43,63	15,063	0,73855	0,72112
44,09	15,104	0,74788	0,73044
44,56	15,003	0,75571	0,73827
45,02	14,927	0,7616	0,74416
45,49	14,922	0,7678	0,75037
45,95	14,914	0,77672	0,75929
46,41	14,906	0,78401	0,76658
46,88	14,878	0,79258	0,77514
47,34	14,868	0,80234	0,7849
47,81	14,576	0,8032	0,78576
48,27	14,733	0,81427	0,79683
48,73	14,76	0,8242	0,80676
49,2	14,82	0,83245	0,81501
49,66	14,83	0,84189	0,82445
50,13	14,712	0,84898	0,83154
50,59	14,663	0,856	0,83856
51,05	14,475	0,86066	0,84322
51,52	14,534	0,86987	0,85244
51,98	14,432	0,87663	0,85919
52,45	14,565	0,88906	0,87162
52,91	14,439	0,89579	0,87835
53,38	14,257	0,9013	0,88386
53,84	14,169	0,90751	0,89007
54,3	14,205	0,91634	0,8989
54,77	14,195	0,92459	0,90715
55,23	14,161	0,93264	0,9152
55,7	14,107	0,94279	0,92535
56,16	13,784	0,9428	0,92536
56,62	13,92	0,95352	0,93609
57,09	13,945	0,96276	0,94532
57,55	13,875	0,96893	0,95149
58,02	13,96	0,97941	0,96197
58,48	13,843	0,98692	0,96948
58,94	13,762	0,99411	0,97667
59,41	13,68	1,0003	0,98287
59,87	13,752	1,0093	0,9919
60,34	13,632	1,0158	0,99833
60,8	13,653	1,0254	1,008
61,27	13,777	1,0374	1,02
61,73	13,42	1,0375	1,0201
62,19	13,503	1,0469	1,0295
62,66	13,459	1,0542	1,0367
63,12	13,513	1,0638	1,0464
63,59	13,489	1,0719	1,0544
64,05	13,704	1,0856	1,0682
64,51	13,289	1,0858	1,0684
64,98	13,417	1,0947	1,0773
65,44	13,288	1,1006	1,0831
65,91	13,339	1,1093	1,0918
66,37	13,377	1,1181	1,1007
66,84	13,475	1,1311	1,1136
67,3	13,117	1,1311	1,1137
67,76	13,258	1,1409	1,1235
68,23	13,172	1,1464	1,1289
68,69	13,204	1,156	1,1386
69,16	13,219	1,1637	1,1463
69,62	13,438	1,1791	1,1617
70,08	13,039	1,1792	1,1618
70,55	13,08	1,1875	1,1701
71,01	13,003	1,1935	1,1761
71,48	13,047	1,2027	1,1853
71,94	13,011	1,2101	1,1927
72,4	13,144	1,2223	1,2049
72,87	12,915	1,2269	1,2095
73,33	12,877	1,2326	1,2152
73,8	12,853	1,2397	1,2223
74,26	12,889	1,2496	1,2322
74,73	12,864	1,2551	1,2377
75,19	12,911	1,2656	1,2482
75,65	12,793	1,2719	1,2545
76,12	12,834	1,2807	1,2633
76,58	12,747	1,2866	1,2692
77,05	12,79	1,2947	1,2772
77,51	12,736	1,3023	1,2849
77,97	12,811	1,3112	1,2938
78,44	12,849	1,3207	1,3033
78,9	12,638	1,324	1,3065
79,37	12,667	1,3331	1,3157
79,83	12,673	1,3403	1,3228
80,3	12,717	1,3492	1,3318
80,76	12,726	1,3579	1,3405
81,22	12,85	1,3703	1,3529
81,69	12,546	1,3705	1,3531
82,15	12,687	1,3814	1,364
82,62	12,599	1,3865	1,3691
83,08	12,704	1,3966	1,3791
83,54	12,652	1,4034	1,3859
84,01	12,793	1,4175	1,4
84,47	12,437	1,4175	1,4001
84,94	12,519	1,4278	1,4103
85,4	12,269	1,4333	1,4158
85,86	10,226	1,4426	1,4251
86,33	8,0177	1,4501	1,4327
86,79	7,794	1,4596	1,4422
87,26	7,6672	1,4674	1,45
87,72	7,5197	1,4731	1,4556
88,19	7,3781	1,4796	1,4621
88,65	7,295	1,4886	1,4711
89,11	7,1899	1,4965	1,479
89,58	7,1341	1,5075	1,4901
90,04	6,7589	1,5125	1,4951
90,51	6,7473	1,52	1,5025
90,97	6,5631	1,5254	1,508
91,43	6,5026	1,5353	1,5178
91,9	6,4246	1,5423	1,5249
92,36	6,4068	1,5511	1,5336
92,83	6,1908	1,5606	1,5432
93,29	6,0141	1,5613	1,5439
93,75	6,0211	1,5724	1,555
94,22	6,0712	1,5822	1,5647
94,68	5,9638	1,5888	1,5714
95,15	5,9395	1,5979	1,5805
95,61	5,8526	1,6081	1,5906
96,08	5,6364	1,6083	1,5908
96,54	5,7087	1,6189	1,6015
97	5,6743	1,6273	1,6099
97,47	5,6627	1,6365	1,6191
97,93	5,6216	1,644	1,6266
98,4	5,5991	1,656	1,6385
98,86	5,3878	1,656	1,6385
99,32	5,4246	1,6659	1,6484
99,79	5,4107	1,673	1,6556
100,3	5,3694	1,6822	1,6648
100,7	5,3645	1,6899	1,6725
101,2	5,2865	1,699	1,6816
101,6	5,254	1,7071	1,6897
102,1	5,1735	1,7129	1,6954
102,6	5,1346	1,7187	1,7013
103	5,1215	1,7284	1,711
103,5	5,1222	1,7363	1,7189
104	5,0864	1,7455	1,728
104,4	4,9489	1,7514	1,7339
104,9	4,9621	1,7598	1,7423
105,4	4,9266	1,7658	1,7484
105,8	4,9312	1,7748	1,7574
106,3	4,9015	1,7824	1,765
106,8	5,0093	1,8	1,7826
107,2	4,6792	1,8002	1,7827
107,7	4,5661	1,8	1,7825
108,1	4,664	1,812	1,7946
108,6	4,6121	1,8217	1,8042
109,1	4,5837	1,8284	1,8109
109,5	4,5827	1,8386	1,8211
110	4,4762	1,8447	1,8272
110,5	4,4818	1,8529	1,8355
110,9	4,4234	1,8585	1,841
111,4	4,4212	1,8676	1,8501
111,9	4,3383	1,8746	1,8572
112,3	4,3597	1,8839	1,8664
112,8	4,2977	1,8924	1,8749
113,2	4,2052	1,8971	1,8796
113,7	4,1891	1,9049	1,8875
114,2	4,1635	1,9129	1,8954
114,6	4,1302	1,9207	1,9032
115,1	4,1122	1,9301	1,9126
115,6	4,1265	1,9426	1,9251
116	3,9501	1,9428	1,9253
116,5	4,0216	1,954	1,9366
117	3,9471	1,9586	1,9412
117,4	3,9076	1,9674	1,95
117,9	3,8853	1,9757	1,9582
118,4	3,9018	1,9914	1,974
118,8	3,7024	1,9905	1,9731
119,3	3,6565	1,9942	1,9767
119,7	3,705	2,0061	1,9887
120,2	3,6465	2,0151	1,9976
120,7	3,6365	2,0233	2,0059
121,1	3,652	2,0374	2,02
121,6	3,4432	2,0376	2,0201
122,1	3,4646	2,0464	2,0289
122,5	3,3836	2,0517	2,0342
123	3,3712	2,0614	2,044
123,5	3,2942	2,0696	2,0521
123,9	3,2532	2,0792	2,0618
124,4	3,1141	2,0876	2,0702
124,9	2,9956	2,0877	2,0702
125,3	3,0442	2,0982	2,0808
125,8	2,955	2,1076	2,0902
126,2	2,8538	2,1151	2,0976
126,7	2,7623	2,1264	2,109
127,2	2,5759	2,1328	2,1154
127,6	2,5172	2,1362	2,1187
128,1	2,5093	2,1451	2,1277
128,6	2,5222	2,1548	2,1374
129	2,4855	2,1609	2,1434
129,5	2,6074	2,1772	2,1597
130	2,4728	2,1774	2,16
130,4	2,5087	2,1854	2,168
130,9	2,5002	2,191	2,1736
131,3	2,512	2,201	2,1836
131,8	2,5187	2,2085	2,191
132,3	2,5253	2,2165	2,1991
132,7	2,5513	2,2281	2,2106
133,2	2,4434	2,2281	2,2107
133,7	2,4541	2,2388	2,2214
134,1	2,3406	2,2449	2,2275
134,6	-0,12732	2,254	2,2366
135,1	-0,12795	2,2641	2,2467
135,5	-0,12859	2,2703	2,2529
136	-0,12922	2,2781	2,2606
136,5	-0,12985	2,2854	2,268
136,9	-0,13049	2,2916	2,2741
137,4	-0,13112	2,3	2,2826
137,8	-0,13175	2,3094	2,2919
138,2		2,3181	2,3006