Folder: TFE/Tests de traction/Fichiers source/04_07_2016 (part 4)

File: Sample_13_250N.txt
Time (s)	Load (N)	Machine Extension (mm)	Extension from Preload (mm)
0
3,487	2,8769	0,081552	0,051371
6,975	5,6851	0,13941	0,10923
10,46	8,2733	0,20148	0,1713
13,95	10,291	0,25829	0,22811
17,44	11,683	0,31269	0,28251
20,92	13,021	0,37112	0,34094
24,41	14,435	0,43269	0,40251
27,9	15,113	0,48686	0,45668
31,39	16,023	0,54536	0,51518
34,87	16,607	0,60399	0,57381
38,36	16,513	0,66324	0,63306
41,85	16,919	0,72168	0,6915
45,34	17,353	0,77809	0,74791
48,82	17,592	0,83503	0,80485
52,31	17,989	0,89497	0,86479
55,8	18,308	0,95396	0,92378
59,29	18,374	1,0105	0,98035
62,77	18,719	1,0683	1,0382
66,26	18,974	1,1272	1,097
69,75	19,215	1,1856	1,1555
73,23	19,462	1,2462	1,216
76,72	19,509	1,301	1,2708
80,21	19,718	1,3587	1,3286
83,7	19,96	1,4185	1,3883
87,18	20,197	1,477	1,4469
90,67	20,221	1,5337	1,5036
94,16	20,585	1,593	1,5629
97,65	20,731	1,6514	1,6212
101,1	20,863	1,7077	1,6775
104,6	21,535	1,775	1,7448
108,1	21,048	1,8216	1,7915
111,6	21,195	1,8814	1,8512
115,1	19,751	1,9406	1,9105
118,6	20,295	1,9998	1,9696
122,1	20,758	2,0586	2,0284
125,5	20,936	2,1157	2,0855
129	21,188	2,1724	2,1423
132,5	21,385	2,2311	2,2009
136	21,982	2,2955	2,2653
139,5	21,526	2,3444	2,3143
143	21,862	2,4046	2,3744
146,5	22,027	2,4638	2,4336
150	22,321	2,5245	2,4943
153,4	22,332	2,581	2,5509
156,9	22,543	2,6403	2,6101
160,4	22,502	2,6948	2,6646
163,9	22,765	2,7541	2,7239
167,4	23,251	2,8194	2,7892
170,9	22,994	2,8708	2,8407
174,4	23,027	2,9278	2,8976
177,9	23,205	2,9873	2,9571
181,3	23,43	3,0455	3,0153
184,8	23,484	3,1045	3,0743
188,3	23,595	3,1626	3,1324
191,8	23,572	3,2178	3,1877
195,3	23,786	3,2773	3,2471
198,8	24,18	3,3399	3,3097
202,3	23,832	3,3908	3,3607
205,8	23,988	3,4515	3,4213
209,2	24,202	3,5112	3,481
212,7	24,376	3,5691	3,5389
216,2	24,533	3,6279	3,5978
219,7	24,631	3,686	3,6558
223,2	24,57	3,7421	3,7119
226,7	24,818	3,801	3,7708
230,2	25,286	3,8654	3,8352
233,7	24,981	3,9176	3,8875
237,1	25,009	3,9746	3,9444
240,6	25,266	4,0343	4,0041
244,1	25,301	4,0915	4,0614
247,6	25,426	4,1546	4,1244
251,1	24,989	4,2102	4,18
254,6	25,078	4,2651	4,2349
258,1	25,366	4,3231	4,2929
261,6	26,013	4,3887	4,3585
265	25,621	4,4394	4,4092
268,5	25,795	4,4975	4,4673
272	26,018	4,5571	4,5269
275,5	26,087	4,6152	4,5851
279	26,251	4,675	4,6448
282,5	26,263	4,7315	4,7013
286	26,321	4,7886	4,7585
289,5	26,471	4,8476	4,8174
292,9	26,513	4,9061	4,8759
296,4	26,609	4,964	4,9338
299,9	26,679	5,0218	4,9916
303,4	26,992	5,0813	5,0511
306,9	26,938	5,1381	5,1079
310,4	27,201	5,2016	5,1714
313,9	26,808	5,2504	5,2202
317,4	27,028	5,3107	5,2806
320,8	27,148	5,3692	5,339
324,3	27,455	5,4313	5,4012
327,8	27,385	5,487	5,4568
331,3	27,477	5,5454	5,5152
334,8	27,653	5,6038	5,5736
338,3	27,643	5,6608	5,6307
341,8	27,792	5,7211	5,6909
345,2	27,553	5,7745	5,7443
348,7	27,743	5,8341	5,8039
352,2	27,865	5,8924	5,8622
355,7	28,088	5,9531	5,9229
359,2	28,109	6,011	5,9809
362,7	28,267	6,0687	6,0385
366,2	28,187	6,125	6,0948
369,7	28,354	6,1849	6,1547
373,1	28,555	6,2456	6,2154
376,6	28,486	6,3001	6,2699
380,1	28,462	6,3568	6,3267
383,6	28,579	6,4169	6,3867
387,1	28,673	6,4752	6,445
390,6	28,801	6,5348	6,5047
394,1	28,562	6,587	6,5568
397,6	28,771	6,6483	6,6181
401	28,865	6,7071	6,6769
404,5	29,222	6,7699	6,7398
408	29,037	6,8248	6,7946
411,5	28,951	6,8806	6,8505
415	28,995	6,9399	6,9097
418,5	28,865	6,9982	6,968
422	28,159	7,0564	7,0262
425,5	28,337	7,1153	7,0851
428,9	28,545	7,1705	7,1403
432,4	28,702	7,2294	7,1992
435,9	29,115	7,2911	7,2609
439,4	28,867	7,3436	7,3134
442,9	29,158	7,403	7,3729
446,4	29,343	7,4626	7,4325
449,9	29,523	7,5221	7,492
453,4	29,721	7,5829	7,5527
456,8	29,642	7,6375	7,6073
460,3	29,544	7,6936	7,6634
463,8	29,634	7,753	7,7229
467,3	29,878	7,8147	7,7845
470,8	29,812	7,8706	7,8404
474,3	29,69	7,9267	7,8965
477,8	29,805	7,9862	7,9561
481,3	29,914	8,045	8,0149
484,7	30,007	8,1045	8,0743
488,2	29,877	8,1611	8,131
491,7	29,799	8,217	8,1868
495,2	29,903	8,2762	8,246
498,7	30,158	8,3383	8,3081
502,2	29,941	8,3915	8,3614
505,7	30,004	8,4505	8,4203
509,2	30,015	8,5091	8,4789
512,6	30,11	8,5674	8,5372
516,1	30,294	8,6286	8,5984
519,6	29,997	8,6812	8,651
523,1	29,997	8,7404	8,7102
526,6	30,191	8,7999	8,7697
530,1	30,316	8,86	8,8299
533,6	30,316	8,9167	8,8866
537,1	30,294	8,9744	8,9442
540,5	30,38	9,0331	9,0029
544	30,429	9,0899	9,0597
547,5	30,601	9,1518	9,1216
551	30,426	9,2056	9,1754
554,5	30,387	9,2632	9,233
558	30,484	9,3228	9,2927
561,5	30,579	9,3819	9,3517
565	30,538	9,4392	9,409
568,4	30,655	9,4975	9,4673
571,9	30,659	9,5549	9,5247
575,4	30,668	9,6137	9,5835
578,9	30,901	9,6761	9,6459
582,4	30,459	9,725	9,6948
585,9	30,653	9,7857	9,7555
589,4	30,787	9,846	9,8158
592,9	30,782	9,9048	9,8746
596,3	30,689	9,9614	9,9312
599,8	30,889	10,023	9,9924
603,3	30,769	10,079	10,048
606,8	30,822	10,137	10,107
610,3	31,147	10,201	10,171
613,8	30,707	10,249	10,219
617,3	30,809	10,31	10,28
620,8	30,963	10,37	10,34
624,2	30,948	10,428	10,398
627,7	30,985	10,486	10,456
631,2	31,077	10,545	10,515
634,7	30,94	10,6	10,57
638,2	30,947	10,659	10,629
641,7	31,291	10,723	10,693
645,2	31,138	10,779	10,749
648,7	30,967	10,832	10,802
652,1	31,1	10,892	10,862
655,6	31,125	10,951	10,921
659,1	31,333	11,012	10,982
662,6	31,258	11,069	11,039
666,1	31,075	11,123	11,093
669,6	31,128	11,182	11,152
673,1	31,185	11,242	11,211
676,6	31,125	11,297	11,266
680	31,206	11,356	11,326
683,5	31,216	11,415	11,385
687	31,239	11,475	11,445
690,5	31,388	11,535	11,505
694	31,353	11,592	11,562
697,5	31,204	11,647	11,617
701	31,231	11,705	11,675
704,4	31,376	11,765	11,735
707,9	31,301	11,82	11,79
711,4	31,401	11,879	11,849
714,9	31,425	11,938	11,908
718,4	31,409	11,997	11,967
721,9	31,538	12,057	12,027
725,4	31,199	12,108	12,078
728,9	31,325	12,169	12,139
732,3	31,388	12,229	12,198
735,8	31,587	12,291	12,261
739,3	31,527	12,345	12,315
742,8	31,521	12,403	12,372
746,3	31,517	12,462	12,432
749,8	31,609	12,52	12,49
753,3	31,69	12,578	12,548
756,8	31,707	12,638	12,607
760,2	31,566	12,692	12,662
763,7	31,622	12,752	12,721
767,2	31,888	12,815	12,785
770,7	31,612	12,867	12,837
774,2	31,743	12,926	12,896
777,7	31,769	12,984	12,954
781,2	31,787	13,043	13,013
784,7	32,043	13,105	13,075
788,1	31,877	13,159	13,129
791,6	31,739	13,215	13,185
795,1	31,837	13,275	13,244
798,6	32,121	13,338	13,308
802,1	31,931	13,391	13,36
805,6	31,999	13,45	13,42
809,1	31,996	13,508	13,478
812,6	32,046	13,565	13,535
816	32,249	13,627	13,597
819,5	31,912	13,678	13,648
823	32,007	13,738	13,708
826,5	32,174	13,798	13,768
830	32,197	13,857	13,827
833,5	32,142	13,913	13,883
837	32,261	13,972	13,942
840,5	32,185	14,029	13,999
843,9	32,216	14,088	14,058
847,4	32,659	14,154	14,123
850,9	32,148	14,201	14,171
854,4	32,284	14,261	14,231
857,9	32,433	14,321	14,291
861,4	32,574	14,381	14,35
864,9	32,567	14,439	14,409
868,4	32,51	14,496	14,466
871,8	32,493	14,552	14,522
875,3	32,569	14,612	14,582
878,8	32,659	14,671	14,641
882,3	32,469	14,725	14,695
885,8	32,584	14,785	14,755
889,3	32,729	14,844	14,814
892,8	32,789	14,904	14,874
896,3	32,796	14,964	14,934
899,7	32,711	15,02	14,99
903,2	32,663	15,076	15,046
906,7	32,68	15,134	15,104
910,2	32,844	15,195	15,165
913,7	32,697	15,249	15,218
917,2	32,89	15,309	15,278
920,7	33,05	15,369	15,339
924,2	32,952	15,426	15,395
927,6	33,067	15,487	15,456
931,1	32,971	15,542	15,512
934,6	32,9	15,598	15,568
938,1	32,972	15,658	15,628
941,6	33,326	15,722	15,692
945,1	33,093	15,773	15,743
948,6	33,176	15,831	15,801
952,1	33,218	15,892	15,861
955,5	33,224	15,949	15,919
959	33,333	16,01	15,98
962,5	33,427	16,067	16,037
966	33,271	16,122	16,091
969,5	33,382	16,181	16,151
973	33,429	16,242	16,211
976,5	33,487	16,298	16,268
980	33,536	16,356	16,326
983,4	33,516	16,414	16,384
986,9	33,46	16,471	16,441
990,4	33,635	16,532	16,502
993,9	33,619	16,589	16,559
997,4	33,546	16,644	16,614
1001	33,62	16,704	16,674
1004	33,671	16,763	16,733
1008	33,726	16,821	16,791
1011	33,803	16,88	16,85
1015	33,751	16,937	16,906
1018	33,733	16,994	16,964
1022	34,136	17,059	17,029
1025	33,988	17,112	17,082
1029	33,816	17,167	17,137
1032	33,462	17,227	17,197
1036	-0,048209	17,286	17,256
1039		17,345	17,315