Folder: TFE/Tests de traction/Fichiers source/04_07_2016

Note: README.md
# TFE
Concentration des calculs et outils utilis√© pour le TFE

File: Sample_1_250N.txt
Time (s)	Load (N)	Machine Extension (mm)
0
0,1732	0,40509	0,000067737
0,3463	0,81239	0,00013704
0,5195	1,2197	0,04323
0,6927	1,627	0,10367
0,8658	2,0343	0,17502
1,039	2,4416	0,23141
1,212	2,8489	0,28591
1,385	3,2562	0,34284
1,559	3,6635	0,41408
1,732	4,0708	0,4736
1,905	4,4781	0,5329
2,078	4,4376	0,59351
2,251	4,209	0,65413
2,424	3,9805	0,71475
2,598	3,752	0,77537
2,771	3,5235	0,83598
2,944	3,2949	0,8966
3,117	3,0664	0,95722
3,29	2,8379	1,0178
3,463	2,6093	1,0785
3,637	2,3808	1,1391
3,81	2,1523	1,1997
3,983	1,9238	1,2603
4,156	1,6952	1,3209
4,329	1,4667	1,3815
4,502	1,2382	1,4422
4,676	1,2505	1,5028
4,849	1,2945	1,5634
5,022	1,3384	1,624
5,195	1,3824	1,6846
5,368	1,4263	1,7453
5,541	1,4703	1,8059
5,715	1,5142	1,8665
5,888	1,5582	1,9271
6,061	1,6021	1,9877
6,234	1,6461	2,0483
6,407	1,69	2,109
6,58	1,7339	2,1696
6,754	1,7337	2,2302
6,927	1,7257	2,2908
7,1	1,7176	2,3514
7,273	1,7096	2,412
7,446	1,7015	2,4727
7,619	1,6935	2,5333
7,793	1,6854	2,5939
7,966	1,6774	2,6545
8,139	1,6694	2,7151
8,312	1,6613	2,7758
8,485	1,6533	2,8364
8,658	1,6452	2,897
8,832	1,6372	2,9576
9,005	1,6291	3,0182
9,178	1,6211	3,0788
9,351	1,613	3,1395
9,524	1,605	3,2001
9,697	1,5969	3,2607
9,871	1,5889	3,3213
10,04	1,5808	3,3819
10,22	1,5728	3,4426
10,39	1,5648	3,5032
10,56	1,5567	3,5638
10,74	1,5487	3,6244
10,91	1,5406	3,685
11,08	1,5326	3,7456
11,26	1,5245	3,8063
11,43	1,5165	3,8669
11,6	1,5084	3,9275
11,78	1,5004	3,9881
11,95	1,4923	4,0487
12,12	1,4843	4,1093
12,29	1,4762	4,17
12,47	1,4682	4,2306
12,64	1,4602	4,2912
12,81	1,4521	4,3518
12,99	1,4441	4,4124
13,16	1,436	4,4731
13,33	1,428	4,5337
13,51	1,4199	4,5943
13,68	1,4119	4,6549
13,85	1,4038	4,7155
14,03	1,3958	4,7761
14,2	1,3877	4,8368
14,37	1,3797	4,8974
14,55	1,3716	4,958
14,72	1,3636	5,0186
14,89	1,3556	5,0792
15,07	1,3475	5,1398
15,24	1,3395	5,2005
15,41	1,3314	5,2611
15,59	1,3234	5,3217
15,76	1,3153	5,3823
15,93	1,3073	5,4429
16,1	1,2992	5,5036
16,28	1,2912	5,5642
16,45	1,2831	5,6248
16,62	1,2751	5,6854
16,8	1,267	5,746
16,97	1,259	5,8066
17,14	1,251	5,8673
17,32	1,2429	5,9279
17,49	1,2349	5,9885
17,66	1,2268	6,0491
17,84	1,2188	6,1097
18,01	1,2107	6,1704
18,18	1,2027	6,231
18,36	1,1946	6,2916
18,53	1,1866	6,3522
18,7	1,1785	6,4128
18,88	1,1705	6,4734
19,05	1,1625	6,5341
19,22	1,1544	6,5947
19,39	1,1464	6,6553
19,57	1,1383	6,7159
19,74	1,1303	6,7765
19,91	1,1222	6,8371
20,09	1,1142	6,8978
20,26	1,1061	6,9584
20,43	1,0981	7,019
20,61	1,09	7,0796
20,78	1,082	7,1402
20,95	1,0739	7,2009
21,13	1,0659	7,2615
21,3	1,0579	7,3221
21,47	1,0498	7,3827
21,65	1,0418	7,4433
21,82	1,0337	7,5039
21,99	1,0257	7,5646
22,17	1,0176	7,6252
22,34	1,0096	7,6858
22,51	1,0015	7,7464
22,69	0,99348	7,807
22,86	0,98544	7,8677
23,03	0,97739	7,9283
23,2	0,96934	7,9889
23,38	0,9613	8,0495
23,55	0,95325	8,1101
23,72	0,94521	8,1707
23,9	0,93716	8,2314
24,07	0,92911	8,292
24,24	0,92107	8,3526
24,42	0,91302	8,4132
24,59	0,90498	8,4738
24,76	0,89693	8,5344
24,94	0,88888	8,5951
25,11	0,88084	8,6557
25,28	0,87279	8,7163
25,46	0,86475	8,7769
25,63	0,8567	8,8375
25,8	0,84865	8,8982
25,98	0,84061	8,9588
26,15	0,83256	9,0194
26,32	0,82452	9,08
26,49	0,81647	9,1406
26,67	0,80842	9,2012
26,84	0,80038	9,2619
27,01	0,79233	9,3225
27,19	0,78429	9,3831
27,36	0,77624	9,4437
27,53	0,76819	9,5043
27,71	0,76015	9,5649
27,88	0,7521	9,6256
28,05	0,74406	9,6862
28,23	0,73601	9,7468
28,4	0,72796	9,8074
28,57	0,71992	9,868
28,75	0,71187	9,9287
28,92	0,70383	9,9893
29,09	0,69578	10,05
29,27	0,68773	10,111
29,44	0,67969	10,171
29,61	0,67164	10,232
29,79	0,6636	10,293
29,96	0,65555	10,353
30,13	0,6475	10,414
30,3	0,63946	10,475
30,48	0,63141	10,536
30,65	0,62337	10,596
30,82	0,61532	10,657
31	0,60727	10,718
31,17	0,59923	10,778
31,34	0,59118	10,839
31,52	0,58313	10,9
31,69	0,57509	10,961
31,86	0,56704	11,021
32,04	0,559	11,082
32,21	0,55095	11,143
32,38	0,5429	11,204
32,56	0,53486	11,264
32,73	0,52681	11,325
32,9	0,51877	11,386
33,08	0,51072	11,446
33,25	0,50267	11,507
33,42	0,49463	11,568
33,59	0,48658	11,629
33,77	0,47854	11,689
33,94	0,47049	11,75
34,11	0,46244	11,811
34,29	0,4544	11,872
34,46	0,44635	11,932
34,63	0,43831	11,993
34,81	0,43026	12,054
34,98	0,42221	12,114
35,15	0,41417	12,175
35,33	0,40612	12,236
35,5	0,39808	12,297
35,67	0,39003	12,357
35,85	0,38198	12,418
36,02	0,37394	12,479
36,19	0,36589	12,54
36,37	0,35785	12,601
36,54	0,3498	12,662
36,71	0,34175	12,723
36,88	0,33371	12,785
37,06	0,32566	12,846
37,23	0,31762	12,907
37,4	0,30957	12,968
37,58	0,30152	13,029
37,75	0,29348	13,09
37,92	0,28543	13,15
38,1	0,27739	13,211
38,27	0,26934	13,272
38,44	0,26129	13,332
38,62	0,25325	13,393
38,79	0,2452	13,453
38,96	0,23715	13,514
39,14	0,22911	13,575
39,31	0,22106	13,635
39,48	0,21302	13,696
39,66	0,20497	13,757
39,83	0,19692	13,817
40	0,18888	13,878
40,18	0,18083	13,938
40,35	0,17279	13,999
40,52	0,16474	14,06
40,69	0,15669	14,12
40,87	0,14865	14,181
41,04	0,1406	14,242
41,21	0,13256	14,302
41,39	0,12451	14,363
41,56	0,11646	14,423
41,73	0,10842	14,484
41,91	0,10037	14,545
42,08	0,092326	14,605
42,25	0,08428	14,666
42,43	0,076234	14,727
42,6	0,068188	14,787
42,77	0,060142	14,848
42,95	0,052096	14,908
43,12	0,04405	14,969
43,29	0,036004	15,03
43,47	0,027958	15,09
43,64	0,019912	15,151
43,81	0,011866	15,212
43,98	0,0038196	15,272
44,16	-0,0042265	15,333
44,33	-0,012272	15,393
44,5	-0,020319	15,454
44,68	-0,028365	15,515
44,85	-0,036411	15,575
45,02	-0,044457	15,636
45,2	-0,052503	15,697
45,37	-0,060549	15,757
45,54	-0,068595	15,818
45,72	-0,076641	15,878
45,89	-0,084687	15,939
46,06	-0,092733	16
46,24	-0,10078	16,06
46,41	-0,10883	16,121
46,58	-0,11687	16,182
46,76	-0,12492	16,242
46,93	-0,13296	16,303
47,1	-0,14101	16,364
47,28	-0,14906	16,424
47,45	-0,1571	16,485
47,62	-0,16515	16,545
47,79	-0,17319	16,606
47,97	-0,18124	16,667
48,14	-0,18929	16,727
48,31	-0,19733	16,788
48,49	-0,20538	16,849
48,66	-0,21342	16,909
48,83	-0,22147	16,97
49,01	-0,22952	17,03
49,18	-0,23756	17,091
49,35	-0,24561	17,152
49,53	-0,25365	17,212
49,7	-0,2617	17,273
49,87	-0,26975	17,334
50,05	-0,27779	17,394
50,22	-0,28584	17,455
50,39	-0,29388	17,515
50,57	-0,30193	17,576
50,74	-0,30998	17,637
50,91	-0,31802	17,697
51,08	-0,32607	17,758
51,26	-0,33411	17,819
51,43	-0,34216	17,879
51,58		17,931

File: Sample_3_250N.txt
Time (s)	Load (N)	Machine Extension (mm)	Extension from Preload (mm)
0		0	-0,058749
1,161	0,36815	0,068243	0,0094944
2,321	0,73452	0,087172	0,028423
3,482	1,1009	0,1078	0,04905
4,643	1,4673	0,13517	0,07642
5,803	1,8337	0,1459	0,087149
6,964	2,2	0,16663	0,10788
8,125	2,5664	0,18144	0,12269
9,285	2,9328	0,20443	0,14568
10,45	3,2992	0,22728	0,16853
11,61	3,6655	0,24245	0,1837
12,77	4,0319	0,26212	0,20338
13,93	4,3983	0,27745	0,21871
15,09	4,7647	0,30147	0,24272
16,25	5,1311	0,32208	0,26333
17,41	5,4974	0,33869	0,27994
18,57	5,8638	0,3602	0,30145
19,73	6,2302	0,37687	0,31813
20,89	6,5966	0,39755	0,33881
22,05	6,9629	0,42007	0,36132
23,21	7,3293	0,43485	0,3761
24,37	7,6957	0,45865	0,39991
25,53	7,9511	0,47701	0,41827
26,7	7,99	0,4939	0,43516
27,86	8,0288	0,51586	0,45711
29,02	8,0677	0,53141	0,47266
30,18	8,1065	0,55618	0,49743
31,34	8,1453	0,5706	0,51186
32,5	8,1842	0,59104	0,53229
33,66	8,223	0,61002	0,55127
34,82	8,2619	0,63059	0,57184
35,98	8,3007	0,65664	0,59789
37,14	8,3396	0,66904	0,61029
38,3	8,3784	0,68866	0,62991
39,46	8,4172	0,70627	0,64752
40,62	8,4561	0,72726	0,66851
41,78	8,4949	0,75043	0,69168
42,94	8,5338	0,76556	0,70681
44,11	8,5726	0,78527	0,72653
45,27	8,6114	0,80459	0,74584
46,43	8,6503	0,82345	0,7647
47,59	8,6891	0,84577	0,78702
48,75	8,728	0,86167	0,80292
49,91	8,7668	0,88209	0,82334
51,07	8,8057	0,90319	0,84444
52,23	8,8445	0,92005	0,8613
53,39	8,8833	0,94161	0,88286
54,55	8,9222	0,95747	0,89872
55,71	8,961	0,97946	0,92071
56,87	8,9999	0,99191	0,93316
58,03	9,0387	1,0173	0,95859
59,19	9,0775	1,0352	0,97643
60,35	9,1164	1,0535	0,99476
61,52	9,1552	1,0758	1,0171
62,68	9,1941	1,0884	1,0297
63,84	9,2329	1,1129	1,0541
65	9,2718	1,1334	1,0747
66,16	9,3106	1,1523	1,0935
67,32	9,3494	1,1795	1,1208
68,48	9,3883	1,1901	1,1314
69,64	9,4271	1,2103	1,1516
70,8	9,466	1,2286	1,1698
71,96	9,5048	1,2495	1,1908
73,12	9,5437	1,2771	1,2183
74,28	9,5825	1,2873	1,2285
75,44	9,6213	1,3073	1,2485
76,6	9,6602	1,3253	1,2666
77,76	9,699	1,346	1,2872
78,93	9,7379	1,3723	1,3136
80,09	9,7767	1,3839	1,3251
81,25	9,8155	1,4046	1,3458
82,41	9,8544	1,4239	1,3652
83,57	9,8932	1,4437	1,3849
84,73	9,9321	1,4626	1,4039
85,89	9,9709	1,4804	1,4217
87,05	10,01	1,5012	1,4425
88,21	10,049	1,5166	1,4578
89,37	10,087	1,5392	1,4805
90,53	10,126	1,5599	1,5012
91,69	10,165	1,5772	1,5184
92,85	10,204	1,5979	1,5392
94,01	10,243	1,6189	1,5602
95,17	10,282	1,6363	1,5775
96,34	10,32	1,657	1,5982
97,5	10,359	1,6729	1,6141
98,66	10,398	1,6971	1,6383
99,82	10,437	1,7134	1,6546
101	10,476	1,7322	1,6734
102,1	10,515	1,7493	1,6906
103,3	10,554	1,7706	1,7118
104,5	10,592	1,7988	1,74
105,6	10,631	1,8097	1,751
106,8	10,67	1,8298	1,771
107,9	10,709	1,8488	1,79
109,1	10,748	1,8681	1,8094
110,3	10,787	1,8932	1,8344
111,4	10,825	1,9066	1,8479
112,6	7,7667	1,9263	1,8676
113,7	7,3561	1,9468	1,8881
114,9	6,9456	1,9643	1,9055
116,1	6,535	1,9905	1,9318
117,2	1,0553	2,0024	1,9437
118,4	1,0784	2,0234	1,9647
119,5	1,1014	2,0389	1,9802
120,7	1,1245	2,0619	2,0031
121,9	1,1475	2,0866	2,0278
123	1,1706	2,1001	2,0414
124,2	1,1936	2,1206	2,0619
125,4	1,2167	2,1434	2,0846
126,5	1,2398	2,1577	2,0989
127,7	1,2628	2,1817	2,123
128,8	1,2859	2,1952	2,1364
130	1,3089	2,2201	2,1614
131,2	1,332	2,2346	2,1758
132,3	1,3551	2,2553	2,1966
133,5	1,3781	2,2751	2,2163
134,6	1,4012	2,2921	2,2334
135,8	1,4242	2,3202	2,2615
137	1,4473	2,3327	2,274
138,1	1,4704	2,3519	2,2931
139,3	1,4934	2,3714	2,3126
140,4	1,5165	2,3897	2,3309
141,6	1,5395	2,4163	2,3575
142,8	1,5626	2,4289	2,3702
143,9	1,5856	2,449	2,3902
145,1	1,6087	2,4657	2,4069
146,2	1,6318	2,4875	2,4288
147,4	1,6548	2,5143	2,4556
148,6	1,6779	2,5259	2,4672
149,7	1,7009	2,5457	2,487
150,9	1,724	2,5613	2,5025
152	1,7471	2,5842	2,5254
153,2	1,7701	2,6072	2,5485
154,4	1,7932	2,6209	2,5621
155,5	1,8162	2,6426	2,5838
156,7	1,8393	2,6596	2,6009
157,9	1,8624	2,68	2,6212
159	1,8854	2,7013	2,6426
160,2	1,9085	2,7181	2,6593
161,3	1,9315	2,7394	2,6807
162,5	1,9546	2,7537	2,6949
163,7	1,9777	2,7775	2,7188
164,8	1,973	2,795	2,7363
166	1,9642	2,8148	2,756
167,1	1,9555	2,8364	2,7777
168,3	1,9468	2,8552	2,7965
169,5	1,938	2,8738	2,815
170,6	1,9293	2,8934	2,8347
171,8	1,9206	2,911	2,8522
172,9	1,9119	2,9392	2,8804
174,1	1,9031	2,9522	2,8935
175,3	1,8944	2,9709	2,9122
176,4	1,8857	2,9882	2,9295
177,6	1,877	3,0095	2,9507
178,7	1,8682	3,0344	2,9756
179,9	1,8595	3,0477	2,9889
181,1	1,8508	3,0677	3,009
182,2	1,842	3,0853	3,0266
183,4	1,8333	3,1062	3,0474
184,5	1,8246	3,1312	3,0725
185,7	1,8159	3,1442	3,0855
186,9	1,8071	3,1646	3,1059
188	1,7984	3,1814	3,1227
189,2	1,7897	3,2044	3,1457
190,3	1,7809	3,2292	3,1705
191,5	1,7722	3,2407	3,1819
192,7	1,7635	3,2609	3,2022
193,8	1,7548	3,2775	3,2187
195	1,746	3,2995	3,2408
196,2	1,7373	3,3224	3,2637
197,3	1,7286	3,3369	3,2781
198,5	1,7199	3,3581	3,2994
199,6	1,7111	3,3761	3,3173
200,8	1,7024	3,3966	3,3378
202	1,6937	3,4169	3,3582
203,1	1,6849	3,4333	3,3745
204,3	1,6762	3,4574	3,3986
205,4	1,6675	3,4741	3,4153
206,6	1,6588	3,4933	3,4345
207,8	1,65	3,515	3,4563
208,9	1,6413	3,5295	3,4707
210,1	1,6326	3,557	3,4982
211,2	1,6239	3,5634	3,5047
212,4	1,6151	3,5905	3,5318
213,6	1,6064	3,6089	3,5502
214,7	1,5977	3,627	3,5683
215,9	1,5889	3,6568	3,598
217	1,5802	3,6689	3,6102
218,2	1,5715	3,687	3,6282
219,4	1,5628	3,7052	3,6465
220,5	1,554	3,7253	3,6665
221,7	1,5453	3,7506	3,6918
222,8	1,5366	3,7628	3,7041
224	1,5278	3,7828	3,724
225,2	1,5191	3,8037	3,745
226,3	1,5104	3,8217	3,7629
227,5	1,5017	3,8484	3,7897
228,7	1,4929	3,8599	3,8011
229,8	1,4842	3,8809	3,8222
231	1,4755	3,8954	3,8366
232,1	1,4668	3,9195	3,8607
233,3	1,458	3,9439	3,8851
234,5	1,4493	3,9565	3,8977
235,6	1,4406	3,9778	3,919
236,8	1,4318	3,999	3,9402
237,9	1,4231	4,015	3,9563
239,1	1,4144	4,0373	3,9786
240,3	1,4057	4,0523	3,9936
241,4	1,3969	4,0753	4,0166
242,6	1,3882	4,0942	4,0355
243,7	1,3795	4,1112	4,0524
244,9	1,3708	4,1337	4,075
246,1	1,362	4,1493	4,0905
247,2	1,3533	4,1708	4,112
248,4	1,3446	4,1919	4,1331
249,5	1,3358	4,2092	4,1505
250,7	1,3271	4,2304	4,1717
251,9	1,3184	4,2469	4,1882
253	1,3097	4,2691	4,2103
254,2	1,3009	4,2868	4,2281
255,3	1,2922	4,3058	4,2471
256,5	1,2835	4,3247	4,2659
257,7	1,2747	4,3427	4,2839
258,8	1,266	4,3645	4,3058
260	1,2573	4,383	4,3243
261,2	1,2486	4,4021	4,3434
262,3	1,2398	4,4187	4,3599
263,5	1,2311	4,4403	4,3816
264,6	1,2224	4,4654	4,4067
265,8	1,2137	4,4781	4,4194
267	1,2049	4,4993	4,4405
268,1	1,1962	4,5151	4,4564
269,3	1,1875	4,538	4,4793
270,4	1,1787	4,559	4,5002
271,6	1,17	4,5753	4,5165
272,8	1,1613	4,5968	4,538
273,9	1,1526	4,6148	4,5561
275,1	1,1438	4,6342	4,5754
276,2	1,1351	4,6575	4,5988
277,4	1,1264	4,6715	4,6127
278,6	1,1176	4,6937	4,635
279,7	1,1089	4,7068	4,648
280,9	1,1002	4,7316	4,6728
282	1,0915	4,7515	4,6928
283,2	1,0827	4,7679	4,7091
284,4	1,074	4,7969	4,7381
285,5	1,0653	4,8114	4,7526
286,7	1,0566	4,8283	4,7696
287,8	1,0478	4,8489	4,7901
289	1,0391	4,8658	4,807
290,2	1,0304	4,8885	4,8297
291,3	1,0216	4,9051	4,8464
292,5	1,0129	4,9245	4,8658
293,6	1,0042	4,9432	4,8844
294,8	0,99546	4,962	4,9032
296	0,98674	4,9932	4,9344
297,1	0,97801	5,0026	4,9439
298,3	0,96928	5,0219	4,9631
299,5	0,96055	5,0383	4,9796
300,6	0,95182	5,0606	5,0019
301,8	0,9431	5,0827	5,024
302,9	0,93437	5,0978	5,039
304,1	0,92564	5,1186	5,0599
305,3	0,91691	5,1381	5,0794
306,4	0,90819	5,1565	5,0978
307,6	0,89946	5,1773	5,1186
308,7	0,89073	5,1942	5,1354
309,9	0,882	5,2162	5,1574
311,1	0,87328	5,2341	5,1753
312,2	0,86455	5,2531	5,1944
313,4	0,85582	5,2766	5,2179
314,5	0,84709	5,2906	5,2319
315,7	0,83837	5,3125	5,2537
316,9	0,82964	5,3335	5,2748
318	0,82091	5,3504	5,2916
319,2	0,81218	5,3686	5,3098
320,3	0,80345	5,387	5,3282
321,5	0,79473	5,4094	5,3506
322,7	0,786	5,4276	5,3688
323,8	0,77727	5,4466	5,3879
325	0,76854	5,4677	5,409
326,1	0,75982	5,4843	5,4256
327,3	0,75109	5,5091	5,4504
328,5	0,74236	5,5257	5,467
329,6	0,73363	5,5429	5,4842
330,8	0,72491	5,5631	5,5043
332	0,71618	5,5818	5,523
333,1	0,70745	5,6093	5,5505
334,3	0,69872	5,6208	5,5621
335,4	0,69	5,6396	5,5809
336,6	0,68127	5,6572	5,5985
337,8	0,67254	5,6795	5,6208
338,9	0,66381	5,6982	5,6395
340,1	0,65509	5,7171	5,6583
341,2	0,64636	5,7373	5,6786
342,4	0,63763	5,759	5,7002
343,6	0,6289	5,7759	5,7171
344,7	0,62017	5,7985	5,7398
345,7	0,61272

File: Sample_4_250N.txt
Time (s)	Load (N)	Machine Extension (mm)	Extension from Preload (mm)
0
0,6789	0,1327	0,020273	-0,0020373
1,358	0,27056	0,036247	0,013937
2,037	0,40843	0,044249	0,021938
2,716	0,54629	0,05587	0,03356
3,395	0,68416	0,072224	0,049913
4,074	0,82202	0,079646	0,057336
4,752	0,95989	0,091069	0,068759
5,431	1,0977	0,10209	0,079781
6,11	1,2356	0,11378	0,091469
6,789	1,3735	0,12594	0,10363
7,468	1,5113	0,1364	0,11409
8,147	1,6492	0,14621	0,1239
8,826	1,7871	0,15909	0,13678
9,505	1,9249	0,176	0,15369
10,18	2,0628	0,17606	0,15375
10,86	2,2007	0,19132	0,16901
11,54	2,3385	0,20456	0,18225
12,22	2,4764	0,22409	0,20178
12,9	2,6143	0,22478	0,20247
13,58	2,7521	0,23691	0,21459
14,26	2,89	0,24776	0,22545
14,94	3,0279	0,26128	0,23896
15,62	3,1657	0,27167	0,24936
16,29	3,3036	0,28244	0,26013
16,97	3,4414	0,2944	0,27209
17,65	3,5793	0,30543	0,28312
18,33	3,7172	0,31622	0,29391
19,01	3,855	0,33057	0,30826
19,69	3,9929	0,33864	0,31633
20,37	4,1308	0,35081	0,3285
21,05	4,2686	0,36865	0,34634
21,73	4,4065	0,36815	0,34584
22,4	4,5444	0,38298	0,36067
23,08	4,6822	0,39641	0,37409
23,76	4,8201	0,41319	0,39088
24,44	4,958	0,41854	0,39623
25,12	5,0958	0,42884	0,40653
25,8	5,2337	0,44151	0,4192
26,48	5,3715	0,4556	0,43329
27,16	5,5094	0,46506	0,44275
27,84	5,6473	0,47443	0,45212
28,51	5,7851	0,48719	0,46488
29,19	5,923	0,50511	0,4828
29,87	6,0223	0,50923	0,48692
30,55	6,0442	0,51958	0,49727
31,23	6,066	0,53229	0,50998
31,91	6,0878	0,54441	0,5221
32,59	6,1097	0,55732	0,53501
33,27	6,1315	0,56644	0,54413
33,95	6,1533	0,57752	0,55521
34,63	6,1751	0,58849	0,56618
35,3	6,197	0,6049	0,58259
35,98	6,2188	0,61141	0,5891
36,66	6,2406	0,62148	0,59917
37,34	6,2625	0,63282	0,61051
38,02	6,2843	0,64968	0,62737
38,7	6,3061	0,6575	0,63519
39,38	6,3279	0,66601	0,6437
40,06	6,3498	0,67985	0,65754
40,74	6,3716	0,6979	0,67559
41,41	6,3934	0,69907	0,67676
42,09	6,4152	0,71179	0,68948
42,77	6,4371	0,7241	0,70178
43,45	6,4589	0,73628	0,71397
44,13	6,4807	0,74931	0,727
44,81	6,5026	0,75896	0,73665
45,49	6,5244	0,76963	0,74732
46,17	6,5462	0,7814	0,75909
46,85	6,568	0,79338	0,77107
47,52	6,5899	0,80423	0,78192
48,2	6,6117	0,81485	0,79254
48,88	6,6335	0,82681	0,8045
49,56	6,6553	0,84091	0,8186
50,24	6,6772	0,85219	0,82988
50,92	6,699	0,85824	0,83593
51,6	6,7208	0,872	0,84969
52,28	6,7427	0,89049	0,86818
52,96	6,7645	0,89079	0,86848
53,64	6,7863	0,90474	0,88243
54,31	6,8081	0,91703	0,89472
54,99	6,83	0,93475	0,91244
55,67	6,8518	0,93888	0,91657
56,35	6,8736	0,9504	0,92809
57,03	6,8954	0,96164	0,93933
57,71	6,9173	0,97422	0,95191
58,39	6,9391	0,98624	0,96393
59,07	6,9609	0,9959	0,97359
59,75	6,9828	1,0072	0,98484
60,42	7,0046	1,0182	0,9959
61,1	7,0264	1,0356	1,0132
61,78	7,0482	1,0357	1,0134
62,46	7,0701	1,0519	1,0296
63,14	7,0919	1,0643	1,042
63,82	7,1137	1,0805	1,0581
64,5	7,1355	1,0884	1,0661
65,18	7,1574	1,0962	1,0739
65,86	7,1792	1,1085	1,0862
66,53	7,201	1,1272	1,1049
67,21	7,2229	1,1284	1,1061
67,89	7,2447	1,1413	1,119
68,57	7,2665	1,1549	1,1326
69,25	7,2883	1,168	1,1457
69,93	7,3102	1,1756	1,1533
70,61	7,332	1,1874	1,1651
71,29	7,3538	1,1996	1,1773
71,97	7,3757	1,2129	1,1906
72,65	7,3975	1,2225	1,2002
73,32	7,4193	1,2346	1,2123
74	7,4411	1,2442	1,2219
74,68	7,463	1,2568	1,2344
75,36	7,4848	1,2663	1,244
76,04	7,5066	1,2808	1,2585
76,72	7,5284	1,2889	1,2666
77,4	7,5503	1,3014	1,2791
78,08	7,5721	1,3189	1,2966
78,76	7,5939	1,319	1,2967
79,43	7,6158	1,3342	1,3119
80,11	7,6376	1,3469	1,3246
80,79	7,6594	1,3645	1,3422
81,47	7,6812	1,3671	1,3448
82,15	7,7031	1,3799	1,3575
82,83	7,7249	1,3915	1,3692
83,51	7,7467	1,4049	1,3826
84,19	7,7685	1,4123	1,39
84,87	7,7904	1,4254	1,4031
85,54	7,8122	1,4371	1,4148
86,22	7,834	1,4492	1,4269
86,9	7,8559	1,4616	1,4393
87,58	7,8777	1,4737	1,4514
88,26	7,8995	1,4811	1,4588
88,94	7,9213	1,4935	1,4712
89,62	7,9432	1,5054	1,4831
90,3	7,965	1,5195	1,4971
90,98	7,9868	1,5267	1,5044
91,66	8,0086	1,5392	1,5169
92,33	8,0305	1,5546	1,5323
93,01	8,0523	1,5642	1,5419
93,69	8,0741	1,5711	1,5488
94,37	8,096	1,5847	1,5624
95,05	8,1178	1,6048	1,5825
95,73	8,1396	1,6049	1,5826
96,41	8,1614	1,6177	1,5954
97,09	8,1833	1,6299	1,6076
97,77	8,2051	1,642	1,6197
98,44	8,2269	1,6528	1,6305
99,12	8,2487	1,6625	1,6402
99,8	8,2706	1,6752	1,6528
100,5	8,2924	1,6867	1,6644
101,2	8,3142	1,6996	1,6773
101,8	8,3361	1,7099	1,6876
102,5	8,3579	1,7202	1,6978
103,2	8,3797	1,7316	1,7093
103,9	8,4015	1,7477	1,7254
104,6	8,4234	1,7475	1,7252
105,2	8,4452	1,7635	1,7412
105,9	8,467	1,7771	1,7547
106,6	8,4888	1,7969	1,7746
107,3	8,5107	1,7956	1,7733
107,9	8,5325	1,8097	1,7873
108,6	8,5543	1,8226	1,8002
109,3	8,5762	1,84	1,8177
110	8,5666	1,842	1,8197
110,7	8,4712	1,8543	1,832
111,3	8,3757	1,8664	1,8441
112	8,2802	1,8794	1,8571
112,7	8,1848	1,8901	1,8678
113,4	8,0893	1,9013	1,879
114,1	7,9939	1,9125	1,8902
114,7	7,8984	1,9244	1,9021
115,4	7,8029	1,9374	1,9151
116,1	7,7075	1,9482	1,9259
116,8	7,612	1,9576	1,9352
117,5	7,5166	1,9693	1,947
118,1	7,4211	1,9843	1,962
118,8	7,3257	1,9925	1,9702
119,5	7,2302	2,0013	1,979
120,2	7,1347	2,0151	1,9928
120,8	7,0393	2,0343	2,012
121,5	6,9438	2,0343	2,012
122,2	6,8484	2,0481	2,0258
122,9	6,7529	2,0596	2,0373
123,6	6,6574	2,0816	2,0593
124,2	6,562	2,0811	2,0588
124,9	6,4665	2,093	2,0707
125,6	6,3711	2,1048	2,0825
126,3	6,2756	2,1167	2,0944
127	6,1801	2,126	2,1037
127,6	6,0847	2,1388	2,1165
128,3	5,9892	2,1503	2,128
129	5,8938	2,1613	2,139
129,7	5,7983	2,174	2,1517
130,4	5,7029	2,1862	2,1639
131	5,6074	2,1946	2,1723
131,7	5,5119	2,2072	2,1849
132,4	5,4165	2,2221	2,1998
133,1	5,321	2,2323	2,21
133,7	5,2256	2,2393	2,217
134,4	5,1301	2,2514	2,2291
135,1	5,0346	2,2679	2,2456
135,8	4,9392	2,276	2,2537
136,5	4,8437	2,2842	2,2619
137,1	4,7483	2,2977	2,2754
137,8	4,6528	2,3098	2,2875
138,5	4,5574	2,3205	2,2982
139,2	4,4619	2,331	2,3087
139,9	4,3664	2,3426	2,3203
140,5	4,271	2,3546	2,3322
141,2	4,1883	2,3669	2,3446
141,9	4,1085	2,3768	2,3545
142,6	4,0286	2,3868	2,3645
143,3	3,9487	2,3994	2,3771
143,9	3,8688	2,4139	2,3915
144,6	3,7889	2,4204	2,3981
145,3	3,7091	2,4325	2,4102
146	3,6292	2,4448	2,4225
146,6	3,5493	2,4614	2,4391
147,3	3,4694	2,4652	2,4429
148	3,3896	2,4768	2,4545
148,7	3,3097	2,4896	2,4673
149,4	3,2298	2,5078	2,4855
150	3,1499	2,5085	2,4862
150,7	3,07	2,5229	2,5006
151,4	2,9902	2,5339	2,5116
152,1	2,9103	2,5478	2,5255
152,8	2,8304	2,5557	2,5334
153,4	2,7505	2,5673	2,545
154,1	2,6707	2,5805	2,5582
154,8	2,5908	2,5922	2,5699
155,5	2,5109	2,6065	2,5842
156,2	2,431	2,6144	2,5921
156,8	2,3511	2,6242	2,6019
157,5	2,2713	2,6361	2,6138
158,2	2,1914	2,6537	2,6313
158,9	2,1115	2,6534	2,631
159,5	2,0316	2,6691	2,6468
160,2	1,9518	2,682	2,6597
160,9	1,8719	2,6996	2,6773
161,6	1,792	2,7013	2,679
162,3	1,7121	2,7144	2,6921
162,9	1,6322	2,7273	2,705
163,6	1,5524	2,7495	2,7272
164,3	1,4725	2,7479	2,7256
165	1,3926	2,76	2,7377
165,7	1,3127	2,773	2,7507
166,3	1,2329	2,7849	2,7626
167	1,153	2,7936	2,7713
167,7	1,0731	2,8048	2,7825
168,4	0,99323	2,8179	2,7956
169,1	0,93976	2,8296	2,8073
169,7	0,91652	2,8428	2,8205
170,4	0,89327	2,8529	2,8306
171,1	0,87002	2,8631	2,8408
171,8	0,84678	2,874	2,8517
172,4	0,82353	2,887	2,8646
173,1	0,80029	2,8993	2,877
173,8	0,77704	2,9067	2,8844
174,5	0,7538	2,9194	2,8971
175,2	0,73055	2,939	2,9166
175,8	0,7073	2,939	2,9167
176,5	0,68406	2,952	2,9297
177,2	0,66081	2,9656	2,9433
177,9	0,63757	2,9781	2,9558
178,6	0,61432	2,9867	2,9644
179,2	0,59108	2,9974	2,9751
179,9	0,56783	3,0105	2,9882
180,6	0,54458	3,0268	3,0045
181,3	0,52134	3,0324	3,0101
182	0,49809	3,0448	3,0225
182,6	0,47485	3,0559	3,0336
183,3	0,4516	3,0674	3,0451
184	0,42836	3,0785	3,0562
184,7	0,40511	3,0901	3,0677
185,3	0,38187	3,0999	3,0776
186	0,35862	3,112	3,0897
186,7	0,33537	3,1247	3,1024
187,4	0,31213	3,1354	3,1131
188,1	0,28888	3,1446	3,1223
188,7	0,26564	3,1579	3,1356
189,4	0,24239	3,1763	3,154
190,1	0,21915	3,1769	3,1546
190,8	0,1959	3,1905	3,1682
191,5	0,17265	3,2027	3,1804
192,1	0,14941	3,2205	3,1982
192,8	0,12616	3,2234	3,2011
193,5	0,10292	3,2352	3,2129
194,2	0,079671	3,2471	3,2248
194,9	0,056426	3,2595	3,2372
195,5	0,03318	3,2689	3,2466
196,2	0,0099342	3,2819	3,2596
196,9	-0,013312	3,2927	3,2704
197,6	-0,036557	3,3057	3,2834
198,2	-0,059803	3,3197	3,2974
198,9	-0,083049	3,328	3,3057
199,6	-0,10629	3,3367	3,3144
200,3	-0,12954	3,3496	3,3273
201	-0,15279	3,3619	3,3395
201,6	-0,17603	3,3738	3,3515
202,2	-0,1959